"Time (s)","Linear Acceleration x (m/s^2)","Linear Acceleration y (m/s^2)","Linear Acceleration z (m/s^2)","Absolute acceleration (m/s^2)"
5.155172200E-2,0.000000000E0,0.000000000E0,0.000000000E0,0.000000000E0
5.629302400E-2,3.945446014E-2,-3.330993652E-2,-4.021739960E-2,6.544956476E-2
6.103437800E-2,7.196831703E-2,-6.621551514E-2,-6.543493271E-2,1.176675976E-1
6.577568000E-2,7.956385612E-2,-8.781719208E-2,-8.837461472E-2,1.478253664E-1
7.051703400E-2,8.655953407E-2,-9.108734131E-2,-9.096145630E-2,1.551239608E-1
7.525833600E-2,1.075322628E-1,-9.075546265E-2,-8.235073090E-2,1.630379846E-1
7.999969000E-2,1.321144104E-1,-8.803796768E-2,-8.088827133E-2,1.781791616E-1
8.474104500E-2,1.493797302E-1,-8.657169342E-2,-7.655334473E-2,1.888633805E-1
8.948234700E-2,1.663086414E-1,-8.366823196E-2,-6.043148041E-2,1.957317069E-1
9.422370100E-2,1.740627289E-1,-8.789253235E-2,-2.416229248E-2,1.964859975E-1
9.896500300E-2,1.840734482E-1,-9.648656845E-2,3.601360321E-2,2.109257496E-1
1.037063570E-1,2.113857269E-1,-1.093010902E-1,1.152119637E-1,2.643944978E-1
1.084476590E-1,2.506601810E-1,-1.218023300E-1,2.002882957E-1,3.431934373E-1
1.131890130E-1,3.193786144E-1,-1.497249603E-1,2.877078056E-1,4.551879222E-1
1.179303680E-1,3.939874172E-1,-1.923828125E-1,3.717703819E-1,5.748481959E-1
1.226716700E-1,4.612727165E-1,-2.584371567E-1,4.672622681E-1,7.056176799E-1
1.274130240E-1,5.243802071E-1,-3.404660225E-1,5.700173378E-1,8.460564280E-1
1.321543260E-1,5.976302624E-1,-4.337944984E-1,6.783547401E-1,1.002748598E0
1.368956800E-1,6.720576286E-1,-5.521583557E-1,7.974462509E-1,1.180025775E0
1.416370340E-1,7.615535259E-1,-6.906442642E-1,9.275741577E-1,1.384683029E0
1.463783360E-1,8.724094629E-1,-8.264260292E-1,1.064361095E0,1.605285892E0
1.511196900E-1,9.926402569E-1,-9.674444199E-1,1.224378109E0,1.849428328E0
1.558609930E-1,1.112951636E0,-1.125852108E0,1.393690586E0,2.109165182E0
1.606023470E-1,1.256690383E0,-1.292637825E0,1.558927536E0,2.383367015E0
1.653437010E-1,1.442067623E0,-1.459094524E0,1.691135883E0,2.658656886E0
1.700850030E-1,1.654822588E0,-1.621237993E0,1.778295040E0,2.920476618E0
1.748263570E-1,1.886077881E0,-1.777240753E0,1.794558525E0,3.152192057E0
1.795676590E-1,2.131974697E0,-1.913363457E0,1.716639519E0,3.339629779E0
1.843090130E-1,2.384240866E0,-2.032091141E0,1.523731709E0,3.483641375E0
1.890503150E-1,2.625913382E0,-2.104943275E0,1.197107792E0,3.572012646E0
1.937916700E-1,2.814652443E0,-2.136091232E0,7.176656723E-1,3.605578753E0
1.985330240E-1,2.898464680E0,-2.129373074E0,8.457851410E-2,3.597565943E0
2.032743260E-1,2.850656509E0,-2.086607456E0,-6.567287445E-1,3.593252824E0
2.080156800E-1,2.646827459E0,-2.000923395E0,-1.405920029E0,3.603609463E0
2.127570340E-1,2.346971750E0,-1.900830269E0,-2.085832834E0,3.670440126E0
2.174983360E-1,1.746857166E0,-1.584400415E0,-2.655829668E0,3.551797554E0
2.222396900E-1,1.220132470E0,-1.509176970E0,-2.986901760E0,3.562010738E0
2.269810450E-1,8.110086322E-1,-1.479794979E0,-3.193568468E0,3.611981138E0
2.317223470E-1,5.261455178E-1,-1.387872934E0,-3.378160000E0,3.689848963E0
2.364637010E-1,3.708984852E-1,-1.443121195E0,-3.242489338E0,3.568459272E0
2.412050030E-1,2.331295013E-1,-1.616727829E0,-3.075990438E0,3.482797068E0
2.459463570E-1,7.664990425E-2,-1.733215570E0,-2.970992088E0,3.440451338E0
2.506877110E-1,-5.475056171E-2,-1.588501930E0,-2.790189266E0,3.211151218E0
2.554290130E-1,5.981373787E-2,-1.427395344E0,-2.435780048E0,2.823837742E0
2.601703680E-1,3.645325899E-1,-1.360153913E0,-2.016021729E0,2.459114940E0
2.649117220E-1,6.033965945E-1,-1.192231417E0,-1.712820053E0,2.172384804E0
2.696530240E-1,8.696367741E-1,-1.021033049E0,-1.380040407E0,1.924392925E0
2.743943780E-1,1.042694926E0,-9.402115345E-1,-1.005536079E0,1.726937534E0
2.791357320E-1,1.123696089E0,-8.543231487E-1,-6.364498138E-1,1.548428012E0
2.838770340E-1,1.189531088E0,-6.605064869E-1,-1.943788528E-1,1.374422121E0
2.886183880E-1,2.110813141E0,3.660240173E-1,3.301934242E0,3.936022794E0
2.933597430E-1,2.288237572E0,7.483983040E-1,5.252521038E0,5.777984810E0
2.981010450E-1,2.437554598E0,1.347626686E0,7.298822880E0,7.812207469E0
3.028423990E-1,2.801342010E0,1.972721577E0,9.404484749E0,1.000916984E1
3.075837530E-1,3.223506451E0,2.574811459E0,1.141131878E1,1.213420142E1
3.123250550E-1,3.717221737E0,3.141260147E0,1.309509087E1,1.397020607E1
3.170664090E-1,4.304430485E0,3.753884792E0,1.438524628E1,1.547756710E1
3.218077630E-1,4.886602402E0,4.404339790E0,1.523267651E1,1.659251414E1
3.265490650E-1,5.316912651E0,5.038080692E0,1.583767700E1,1.744946504E1
3.312904200E-1,5.526957989E0,5.540383816E0,1.650053024E1,1.826227302E1
3.360317740E-1,5.237293720E0,5.878021240E0,1.730262375E1,1.900950204E1
3.407730760E-1,4.573343754E0,6.093607426E0,1.797796059E1,1.952574176E1
3.455144300E-1,3.631363869E0,6.197037697E0,1.816749001E1,1.953580745E1
3.502557840E-1,2.353324175E0,6.246089458E0,1.795521545E1,1.915571795E1
3.549971380E-1,8.696150780E-1,6.364216805E0,1.765192795E1,1.878430319E1
3.597384400E-1,-3.048616946E-1,6.719488621E0,1.765614319E1,1.889401652E1
3.644797950E-1,-9.135656357E-1,7.339862347E0,1.789434624E1,1.936274280E1
3.692211490E-1,-1.098926902E0,7.931581974E0,1.814372253E1,1.983210277E1
3.739624510E-1,-1.139561176E0,8.389284134E0,1.807612801E1,1.996058846E1
3.787038050E-1,-1.155841351E0,8.675809860E0,1.759640312E1,1.965296539E1
3.834451590E-1,-1.206699133E0,8.764297485E0,1.690290833E1,1.907819025E1
3.881865130E-1,-1.300827742E0,8.852109909E0,1.628809738E1,1.858370574E1
3.929278150E-1,-1.431418896E0,8.880557060E0,1.577402687E1,1.815855659E1
3.976691700E-1,-1.555995703E0,8.836194992E0,1.517954826E1,1.763287129E1
4.024105240E-1,-1.676542044E0,8.618344307E0,1.445572376E1,1.691314877E1
4.071518260E-1,-1.665474653E0,8.328544617E0,1.353041840E1,1.597531481E1
4.118931800E-1,-1.444110632E0,8.053310394E0,1.233670902E1,1.480323118E1
4.166345340E-1,-9.906299710E-1,7.913954258E0,1.094758892E1,1.354480428E1
4.213758880E-1,-4.880604148E-1,7.910246849E0,9.404043198E0,1.229822087E1
4.261171900E-1,-1.419913769E-2,7.990333557E0,7.866881371E0,1.121309299E1
4.308585450E-1,3.096675277E-1,8.140872002E0,6.369616508E0,1.034126227E1
4.355998990E-1,4.037629068E-1,8.305945396E0,5.094455719E0,9.752191163E0
4.403412530E-1,3.383555114E-1,8.460653305E0,4.008914948E0,9.368486423E0
4.450825550E-1,1.775331795E-2,8.570831299E0,3.066823006E0,9.103014209E0
4.498239090E-1,-5.250738859E-1,8.505199432E0,2.272651672E0,8.819244049E0
4.545652630E-1,-1.172445178E0,8.270639420E0,1.723586082E0,8.529293821E0
4.593066180E-1,-1.890103102E0,7.840185165E0,1.405064583E0,8.186281185E0
4.640479200E-1,-2.836164951E0,7.210838318E0,1.314620018E0,7.859277745E0
4.687892740E-1,-3.960528612E0,6.326795578E0,1.377141953E0,7.590167925E0
4.735306280E-1,-5.063093185E0,5.229039192E0,1.779585838E0,7.492975993E0
4.782719820E-1,-5.894649982E0,3.907590866E0,2.331139565E0,7.446500954E0
4.830132840E-1,-6.429878235E0,2.475566864E0,2.739005089E0,7.414439580E0
4.877546380E-1,-6.667810917E0,1.047275543E0,2.947813034E0,7.365194510E0
4.924959930E-1,-6.737947941E0,-4.320068359E-1,2.916539192E0,7.354778937E0
4.972373470E-1,-6.706987381E0,-1.937891006E0,2.589893341E0,7.446250654E0
5.019786490E-1,-6.643160820E0,-3.474372387E0,1.967245102E0,7.750671097E0
5.067200030E-1,-6.500569820E0,-4.962403297E0,1.142544746E0,8.257618481E0
5.114613570E-1,-6.282755852E0,-6.309990883E0,2.540893555E-1,8.908061935E0
5.162027110E-1,-5.910555840E0,-7.411834717E0,-6.109514236E-1,9.499643459E0
5.209440130E-1,-5.418035984E0,-8.301394463E0,-1.477423668E0,1.002252686E1
5.256853680E-1,-4.638196468E0,-8.789405823E0,-2.279520035E0,1.019621169E1
5.304267220E-1,-3.790083408E0,-8.998470306E0,-3.101718903E0,1.024489435E1
5.351680760E-1,-3.172071695E0,-9.034788132E0,-4.158761978E0,1.043957550E1
5.399094300E-1,-2.678080559E0,-8.947564125E0,-5.429719925E0,1.080337344E1
5.446507320E-1,-2.287834167E0,-8.817684174E0,-6.792791843E0,1.136343964E1
5.493920860E-1,-1.998537540E0,-8.689454079E0,-8.156105042E0,1.208398998E1
5.541334400E-1,-1.770073771E0,-8.647010803E0,-9.388484955E0,1.288594609E1
5.588747950E-1,-1.694595695E0,-8.628928185E0,-1.046908379E1,1.367229942E1
5.636161490E-1,-1.601417780E0,-8.547886848E0,-1.157421684E1,1.447734105E1
5.683574510E-1,-1.446373820E0,-8.466751099E0,-1.261265469E1,1.525965038E1
5.730988050E-1,-1.270599365E0,-8.424058914E0,-1.349126625E1,1.595598497E1
5.778401590E-1,-1.039348364E0,-8.554878235E0,-1.450692558E1,1.687356146E1
5.825815130E-1,-7.384848595E-1,-8.641247749E0,-1.559584045E1,1.784507669E1
5.873228680E-1,-4.142308235E-1,-8.681744576E0,-1.704688644E1,1.913480111E1
5.920641700E-1,-7.677191496E-2,-8.707530975E0,-1.872212982E1,2.064812666E1
5.968055240E-1,9.870809317E-2,-8.882488251E0,-2.053495979E1,2.237393382E1
6.015468780E-1,2.585369349E-2,-9.180146217E0,-2.206698799E1,2.390037054E1
6.062882320E-1,-4.094082117E-1,-9.561704636E0,-2.288586617E1,2.480638387E1
6.110295860E-1,-1.016623259E0,-9.892653465E0,-2.321725082E1,2.525745140E1
6.157708880E-1,-1.691119432E0,-1.011634922E1,-2.325121689E1,2.541297884E1
6.205122430E-1,-2.317902088E0,-1.025773430E1,-2.305489731E1,2.534012772E1
6.252535970E-1,-2.804232836E0,-1.032054901E1,-2.271822739E1,2.510966565E1
6.299949510E-1,-3.126953363E0,-1.043957520E1,-2.212556839E1,2.466380636E1
6.347363050E-1,-3.294920444E0,-1.049921799E1,-2.143495560E1,2.409455126E1
6.394776070E-1,-3.187908411E0,-1.047027779E1,-2.068411255E1,2.340132451E1
6.442189610E-1,-2.897546768E0,-1.038327789E1,-1.989348793E1,2.262651319E1
6.489603150E-1,-2.576254368E0,-1.027305412E1,-1.909999657E1,2.183993124E1
6.537016700E-1,-2.241950035E0,-1.020279026E1,-1.819994545E1,2.098478695E1
6.584430240E-1,-1.893795252E0,-1.019750404E1,-1.712576485E1,2.002167253E1
6.631843780E-1,-1.484315515E0,-1.027039814E1,-1.592898464E1,1.901096584E1
6.679256800E-1,-1.156434655E0,-1.034938622E1,-1.446098518E1,1.782041606E1
6.726670340E-1,-6.431376934E-1,-1.039154053E1,-1.277153587E1,1.647755653E1
6.774083880E-1,6.739616394E-3,-1.031600666E1,-1.109808350E1,1.515214493E1
6.821497430E-1,8.079604506E-1,-1.012294579E1,-9.626843452E0,1.399296060E1
6.868910970E-1,1.646608949E0,-9.990150452E0,-8.410216331E0,1.316230093E1
6.916324510E-1,2.399388313E0,-9.972809792E0,-7.341161251E0,1.261374837E1
6.963737530E-1,2.890991449E0,-9.992641449E0,-6.111453533E0,1.206484890E1
7.011151070E-1,3.132184029E0,-9.853410721E0,-4.792755127E0,1.139608623E1
7.058564610E-1,3.350117922E0,-9.557300568E0,-3.610935450E0,1.075193653E1
7.105978150E-1,3.496860504E0,-9.134492874E0,-2.792997837E0,1.017191380E1
7.153391700E-1,3.491142273E0,-8.790002823E0,-2.436535358E0,9.766725580E0
7.200805240E-1,3.351342678E0,-8.458118439E0,-2.586531639E0,9.458404262E0
7.248218780E-1,3.176876068E0,-8.134967804E0,-3.119159222E0,9.273585982E0
7.295631800E-1,2.831681013E0,-7.837944984E0,-3.707100391E0,9.121096001E0
7.343045340E-1,2.397057533E0,-7.529782295E0,-4.300942421E0,8.996755634E0
7.390458880E-1,1.641575098E0,-7.197883606E0,-4.544419289E0,8.669258554E0
7.437872430E-1,9.179173708E-1,-6.822617531E0,-4.958643913E0,8.484033930E0
7.485285970E-1,1.773604453E-1,-6.501090050E0,-5.255094528E0,8.361318500E0
7.532699510E-1,-8.351624608E-1,-6.237431526E0,-5.356214046E0,8.263902062E0
7.580112530E-1,-1.819278002E0,-5.890843391E0,-5.386979103E0,8.187267686E0
7.627526070E-1,-2.428640366E0,-5.452112198E0,-5.507325172E0,8.121234635E0
7.674939610E-1,-2.696835756E0,-5.021294117E0,-5.778778553E0,8.116686471E0
7.722353150E-1,-2.737864256E0,-4.668980598E0,-6.236488819E0,8.257667546E0
7.769766700E-1,-2.614937305E0,-4.427091122E0,-6.796564102E0,8.522342196E0
7.817180240E-1,-2.274362087E0,-4.258393288E0,-7.437492847E0,8.866957548E0
7.864593780E-1,-1.881811619E0,-4.151990891E0,-8.066592216E0,9.265535781E0
7.912006800E-1,-1.337822914E0,-4.032746315E0,-8.665546417E0,9.651140228E0
7.959420340E-1,-9.367040396E-1,-3.914227486E0,-9.118516922E0,9.967243457E0
8.006833880E-1,-7.669826746E-1,-3.841118813E0,-9.455359459E0,1.023456294E1
8.054247430E-1,-8.142421842E-1,-3.801251650E0,-9.491308212E0,1.025658013E1
8.101660970E-1,-9.561514854E-1,-3.771222591E0,-9.139868736E0,9.933455895E0
8.149074510E-1,-1.058415055E0,-3.625746012E0,-8.595575333E0,9.388833360E0
8.196488050E-1,-1.167721152E0,-3.499702215E0,-8.092122078E0,8.893476711E0
8.243901070E-1,-1.267911673E0,-3.391591549E0,-7.514303684E0,8.341178160E0
8.291314610E-1,-1.660796881E0,-3.276516676E0,-6.642670155E0,7.590709755E0
8.338728150E-1,-2.098621368E0,-2.967938185E0,-5.497026920E0,6.590157333E0
8.386141700E-1,-2.132707596E0,-2.313110113E0,-4.447178841E0,5.447597610E0
8.433555240E-1,-1.905247927E0,-1.509237885E0,-3.592203856E0,4.337245347E0
8.480968780E-1,-1.682673454E0,-7.517449856E-1,-2.909558773E0,3.444131637E0
8.528382320E-1,-1.422018766E0,4.636788368E-2,-2.415169239E0,2.803092900E0
8.575795340E-1,-1.210711956E0,7.789385319E-1,-1.698987961E0,2.226910139E0
8.623208880E-1,-1.209169149E0,1.313602209E0,-4.198913574E-1,1.834107289E0
8.670622430E-1,-1.349742174E0,1.729781151E0,1.404405117E0,2.605052878E0
8.718035970E-1,-1.574467421E0,2.101532698E0,3.642017365E0,4.489952987E0
8.765449510E-1,-2.042552471E0,2.549475193E0,6.228571415E0,7.033274218E0
8.812863050E-1,-2.943108082E0,3.026376486E0,9.081161499E0,1.001440632E1
8.860276590E-1,-4.141773224E0,3.568098068E0,1.189148045E1,1.308789198E1
8.907690130E-1,-5.297287941E0,4.172578812E0,1.441510391E1,1.591436126E1
8.955103150E-1,-6.361864567E0,4.993412971E0,1.645914841E1,1.833878568E1
9.002516700E-1,-6.963678360E0,6.179698944E0,1.782463455E1,2.010967658E1
9.049930240E-1,-7.216591358E0,7.553261280E0,1.825360489E1,2.103152487E1
9.097343780E-1,-7.454305649E0,8.895743370E0,1.803654480E1,2.144802721E1
9.144757320E-1,-7.450844288E0,1.033850670E1,1.756414032E1,2.170020338E1
9.192170860E-1,-7.048259258E0,1.184252548E1,1.761067009E1,2.236200057E1
9.239584400E-1,-6.745260715E0,1.315714264E1,1.903493881E1,2.410265214E1
9.286997430E-1,-6.970420837E0,1.394527626E1,2.168431664E1,2.670706058E1
9.334410970E-1,-6.961488247E0,1.444387627E1,2.543838120E1,3.006990386E1
9.381824510E-1,-6.737192154E0,1.451142311E1,2.971517944E1,3.374852661E1
9.429238050E-1,-6.559972763E0,1.400707817E1,3.360680389E1,3.699525307E1
9.476651590E-1,-6.179871082E0,1.317961597E1,3.667662430E1,3.945969911E1
9.524065130E-1,-5.269706726E0,1.227504063E1,3.988416290E1,4.206177459E1
9.571478680E-1,-4.388453007E0,1.182065582E1,4.281781387E1,4.463576603E1
9.618892220E-1,-2.627710581E0,1.176037025E1,4.464476776E1,4.624247463E1
9.666305240E-1,-1.287334681E0,1.148567009E1,4.576374435E1,4.720061594E1
9.713718780E-1,-4.693893194E-1,1.093131828E1,4.618589783E1,4.746420971E1
9.761132320E-1,-5.448157787E-1,1.023966885E1,4.584578323E1,4.697854279E1
9.808545860E-1,-1.221647382E0,9.782464027E0,4.463713074E1,4.571282605E1
9.855959400E-1,-1.891493320E0,9.716209412E0,4.215308762E1,4.329971441E1
9.903372950E-1,-2.645129681E0,9.869227409E0,3.845458984E1,3.978886579E1
9.950786490E-1,-3.843164921E0,9.946327209E0,3.430431366E1,3.592332497E1
9.998199510E-1,-5.525937557E0,9.982013702E0,3.055160522E1,3.261253080E1
1.004561305E0,-7.198318005E0,1.021395302E1,2.749374771E1,3.020011228E1
1.009302659E0,-8.856895447E0,1.038840485E1,2.497850800E1,2.846558297E1
1.014044013E0,-1.054915047E1,1.030416679E1,2.267779160E1,2.705074233E1
1.018785368E0,-1.205942249E1,1.012262440E1,2.030059433E1,2.569068558E1
1.023526722E0,-1.324627686E1,9.915967941E0,1.773558044E1,2.425574333E1
1.028268076E0,-1.424816895E1,9.544013023E0,1.483065987E1,2.267260406E1
1.033009430E0,-1.458671951E1,8.963095665E0,1.158418083E1,2.067130174E1
1.037750784E0,-1.431226730E1,8.067590714E0,8.361831665E0,1.843494627E1
1.042492086E0,-1.333867645E1,6.911044598E0,5.471510887E0,1.598812867E1
1.047233440E0,-1.146990204E1,5.648490429E0,2.951896667E0,1.312165351E1
1.051974795E0,-9.057008743E0,4.438313007E0,8.379831314E-1,1.012078285E1
1.056716149E0,-6.366945267E0,3.132785320E0,-1.041639328E0,7.171983574E0
1.061457503E0,-3.669856548E0,1.524891853E0,-2.641582489E0,4.771907406E0
1.066198857E0,-1.002660275E0,1.388788223E-2,-4.101953506E0,4.222741179E0
1.070940211E0,1.654471159E0,-1.132293701E0,-5.968037605E0,6.295779277E0
1.075681565E0,3.936708450E0,-2.057472229E0,-8.395180702E0,9.497890525E0
1.080422868E0,5.887646675E0,-2.741508484E0,-1.117656708E1,1.292655808E1
1.085164222E0,7.491716385E0,-3.342257738E0,-1.408347607E1,1.629849071E1
1.089905576E0,8.788348198E0,-4.033575058E0,-1.672930145E1,1.932289623E1
1.094646930E0,9.880814552E0,-4.726954937E0,-1.893719864E1,2.187674774E1
1.099388284E0,1.059016991E1,-5.113908768E0,-2.110255623E1,2.415826237E1
1.104129638E0,1.072155380E1,-5.507896900E0,-2.315132523E1,2.610119737E1
1.108870993E0,1.046041298E1,-6.054686069E0,-2.500508118E1,2.777289232E1
1.113612347E0,9.978567123E0,-6.645175457E0,-2.620623398E1,2.881834239E1
1.118353649E0,9.586523056E0,-7.188650131E0,-2.677508926E1,2.933399939E1
1.123095003E0,9.418565750E0,-7.633854866E0,-2.665935516E1,2.928662389E1
1.127836357E0,9.371752739E0,-7.997433662E0,-2.583894920E1,2.862586227E1
1.132577711E0,9.395453453E0,-8.339343071E0,-2.460950279E1,2.763054137E1
1.137319065E0,9.607565880E0,-8.509577751E0,-2.324757004E1,2.655499479E1
1.142060420E0,9.945057869E0,-8.565549850E0,-2.219508362E1,2.578554938E1
1.146801774E0,1.034373951E1,-8.637195587E0,-2.147728348E1,2.535483781E1
1.151543128E0,1.081005859E1,-8.724422455E0,-2.085903931E1,2.506137336E1
1.156284430E0,1.146478176E1,-8.805182457E0,-2.045210266E1,2.504517842E1
1.161025784E0,1.215099621E1,-8.868783951E0,-2.009434700E1,2.510149037E1
1.165767138E0,1.275857353E1,-8.882854462E0,-1.987815666E1,2.523543965E1
1.170508493E0,1.310915470E1,-8.963017464E0,-1.962021255E1,2.524159979E1
1.175249847E0,1.302875996E1,-9.119915009E0,-1.923144913E1,2.495536157E1
1.179991201E0,1.241648960E1,-9.205108643E0,-1.861185074E1,2.419306155E1
1.184732555E0,1.135140800E1,-9.238129616E0,-1.803713989E1,2.322791248E1
1.189473909E0,1.016239738E1,-9.176413536E0,-1.759638977E1,2.229604940E1
1.194215211E0,9.084913254E0,-9.017358780E0,-1.735713387E1,2.156660623E1
1.198956565E0,8.263960838E0,-8.841694832E0,-1.699507332E1,2.086387148E1
1.203697920E0,7.849740982E0,-8.617429733E0,-1.633460236E1,2.006733073E1
1.208439274E0,7.691769123E0,-8.222266197E0,-1.544350243E1,1.911205747E1
1.213180628E0,7.617221832E0,-7.999451637E0,-1.426418686E1,1.804107319E1
1.217921982E0,7.430968285E0,-7.955536842E0,-1.250370407E1,1.657867521E1
1.222663336E0,7.000707626E0,-7.931230545E0,-1.025275803E1,1.473205255E1
1.227404690E0,6.692938805E0,-7.820866108E0,-7.841845989E0,1.294047623E1
1.232145993E0,6.634310722E0,-7.600306511E0,-5.418751717E0,1.145170765E1
1.236887347E0,6.719656467E0,-7.395568848E0,-3.214331388E0,1.049667318E1
1.241628701E0,6.761005878E0,-7.308323860E0,-1.293946743E0,1.003977571E1
1.246370055E0,6.597225189E0,-7.292245865E0,3.081488609E-1,9.838454435E0
1.251111409E0,5.974651337E0,-7.309192657E0,1.682033062E0,9.589055799E0
1.255852763E0,4.710292816E0,-7.245678425E0,2.989540577E0,9.144619572E0
1.260594118E0,3.111020088E0,-7.008337021E0,4.186918736E0,8.736447921E0
1.265335420E0,1.892374039E0,-6.467400074E0,4.861988068E0,8.309468767E0
1.270076774E0,1.125384808E0,-5.775641918E0,4.853039742E0,7.627353752E0
1.274818128E0,7.998294830E-1,-5.123941422E0,4.145727158E0,6.639394292E0
1.279559482E0,9.075975418E-1,-4.712591171E0,2.717401505E0,5.515117386E0
1.284300836E0,1.320471287E0,-4.403869629E0,8.426141739E-1,4.674153482E0
1.289042190E0,1.864922762E0,-4.169950962E0,-1.148228645E0,4.710080356E0
1.293783545E0,2.408460379E0,-4.047732830E0,-3.006880283E0,5.588036462E0
1.298524847E0,2.995570660E0,-3.940935612E0,-4.547626495E0,6.722002961E0
1.303266201E0,3.532366276E0,-3.856826305E0,-5.725617886E0,7.754703142E0
1.308007555E0,3.968420744E0,-3.793701649E0,-6.555247784E0,8.550544363E0
1.312748909E0,4.341955662E0,-3.736287594E0,-6.983441830E0,9.032213668E0
1.317490263E0,4.633632660E0,-3.712836027E0,-7.054815292E0,9.220961002E0
1.322231618E0,4.840934277E0,-3.737427473E0,-7.028232574E0,9.316601414E0
1.326972920E0,4.997403622E0,-3.807494164E0,-7.030151367E0,9.428365872E0
1.331714274E0,5.072454453E0,-3.830117226E0,-6.909502029E0,9.388333741E0
1.336455628E0,4.919743538E0,-3.796893835E0,-6.445778847E0,8.953677692E0
1.341196982E0,4.399250031E0,-3.808022261E0,-5.528055191E0,8.025822610E0
1.345938336E0,3.393723011E0,-3.744982243E0,-4.116761208E0,6.518433149E0
1.350679690E0,2.077954769E0,-3.464142799E0,-2.272439003E0,4.634885153E0
1.355421045E0,9.839074612E-1,-2.960204363E0,-4.687209129E-1,3.154454478E0
1.360162347E0,3.932404518E-1,-2.288701534E0,1.014770985E0,2.534275620E0
1.364903701E0,3.439188004E-2,-1.689767599E0,1.934107780E0,2.568515183E0
1.369645055E0,-5.734086037E-2,-1.255601883E0,2.168969154E0,2.506840891E0
1.374386409E0,3.337144852E-3,-9.672122002E-1,1.760624409E0,2.008807827E0
1.379127763E0,6.473565102E-2,-7.717359066E-1,1.088301182E0,1.335726947E0
1.383869118E0,1.533460617E-1,-5.497214794E-1,4.460458755E-1,7.243380721E-1
1.388610420E0,1.897625923E-1,-4.209218025E-1,-7.128143311E-2,4.671895204E-1
1.393351774E0,2.848005295E-2,-4.048066139E-1,-5.048098564E-1,6.476978456E-1
1.398093128E0,-3.194360733E-1,-4.331021309E-1,-8.376259804E-1,9.956074245E-1
1.402834482E0,-7.943089008E-1,-3.595840931E-1,-9.663629532E-1,1.301570093E0
1.407575836E0,-1.325637817E0,-1.511731148E-1,-9.684939384E-1,1.648681122E0
1.412317190E0,-1.913053751E0,1.919679642E-1,-9.254364967E-1,2.133789836E0
1.417058493E0,-2.581201315E0,5.651051998E-1,-9.227967262E-1,2.798838672E0
1.421799847E0,-3.382419348E0,9.160096645E-1,-6.350941658E-1,3.561345104E0
1.426541201E0,-4.196369648E0,1.384829283E0,3.223114014E-1,4.430705926E0
1.431282555E0,-4.995497227E0,1.889992476E0,2.326441288E0,5.825752584E0
1.436023909E0,-5.344056129E0,2.494483232E0,5.319280148E0,7.942047834E0
1.440765263E0,-5.192355633E0,3.123094559E0,8.529190063E0,1.046237830E1
1.445506618E0,-4.838708878E0,3.508901596E0,1.126949596E1,1.275645065E1
1.450247920E0,-4.304050922E0,3.625673771E0,1.327686787E1,1.442031848E1
1.454989274E0,-3.661455631E0,3.546529770E0,1.437128067E1,1.524853563E1
1.459730628E0,-2.924227238E0,3.436954260E0,1.459921551E1,1.528073470E1
1.464471982E0,-2.340277433E0,3.384414196E0,1.441492462E1,1.499070411E1
1.469213336E0,-1.803014278E0,3.564452648E0,1.450565624E1,1.504560554E1
1.473954690E0,-1.241478562E0,4.162836075E0,1.563380718E1,1.622610243E1
1.478695993E0,-9.061878920E-1,4.930580139E0,1.822625351E1,1.890312445E1
1.483437347E0,-1.129806757E0,5.705586433E0,2.193820381E1,2.269614431E1
1.488178701E0,-2.013283253E0,6.386802197E0,2.613010025E1,2.697455636E1
1.492920055E0,-3.289674520E0,6.959794998E0,3.085459900E1,3.180042428E1
1.497661409E0,-4.256089211E0,7.530417442E0,3.558464050E1,3.662087003E1
1.502402711E0,-4.484832764E0,8.035811424E0,3.898788452E1,4.005924525E1
1.507144065E0,-4.044360161E0,8.326749802E0,4.005954361E1,4.111518753E1
1.511885420E0,-2.946391582E0,8.557910919E0,3.863185120E1,3.967794084E1
1.516626774E0,-1.339632988E0,8.715343475E0,3.558883286E1,3.666492673E1
1.521368128E0,2.427461147E-1,8.911714554E0,3.231030655E1,3.351765939E1
1.526109482E0,1.237319350E0,9.323827744E0,2.962091827E1,3.107834491E1
1.530850784E0,1.489844322E0,1.004370308E1,2.815534973E1,2.993024100E1
1.535592138E0,8.560327291E-1,1.065657043E1,2.785759354E1,2.983857911E1
1.540333493E0,-3.784060478E-1,1.071119976E1,2.817621040E1,3.014584257E1
1.545074847E0,-1.758407712E0,1.042885590E1,2.822704315E1,3.014330768E1
1.549816201E0,-2.800003767E0,1.009172440E1,2.734245682E1,2.927956399E1
1.554557503E0,-3.404249191E0,9.789894104E0,2.554553223E1,2.756819102E1
1.559298857E0,-3.440447807E0,9.473495483E0,2.312839890E1,2.522908308E1
1.564040211E0,-3.194966555E0,9.190601349E0,2.063051987E1,2.280993894E1
1.568781565E0,-3.067557335E0,8.918424606E0,1.853086472E1,2.079281493E1
1.573522920E0,-2.852376461E0,8.785446167E0,1.686639023E1,1.923006072E1
1.578264222E0,-2.637449741E0,8.515739441E0,1.544772530E1,1.783553128E1
1.583005576E0,-2.551004410E0,8.033954620E0,1.424175930E1,1.654931293E1
1.587746930E0,-2.435100794E0,7.456126213E0,1.284298420E1,1.504877992E1
1.592488284E0,-2.164554834E0,6.844296932E0,1.078407001E1,1.295476222E1
1.597229638E0,-1.862897277E0,6.189896584E0,8.149656296E0,1.040202402E1
1.601970993E0,-1.540530920E0,5.501664162E0,5.367497444E0,7.839105362E0
1.606712295E0,-1.147688270E0,4.933650017E0,2.666160583E0,5.724203273E0
1.611453649E0,-6.937638521E-1,4.402931213E0,5.417442322E-2,4.457583025E0
1.616195003E0,-2.254304886E-1,3.862181187E0,-2.330584526E0,4.516512665E0
1.620936357E0,2.161123753E-1,3.149122715E0,-4.374038219E0,5.394060509E0
1.625677711E0,6.334668398E-1,2.380793095E0,-5.914236069E0,6.406843550E0
1.630419013E0,9.982678890E-1,1.582754135E0,-7.013725281E0,7.259062732E0
1.635160368E0,1.183921814E0,7.038135529E-1,-7.706037521E0,7.828156786E0
1.639901722E0,1.195086241E0,-2.862410545E-1,-7.947775841E0,8.042220208E0
1.644643076E0,1.097835302E0,-1.322520256E0,-7.864866734E0,8.050492588E0
1.649384378E0,1.138216019E0,-2.321004868E0,-7.721651554E0,8.142880450E0
1.654125732E0,1.154044032E0,-3.314131498E0,-7.706179619E0,8.467614158E0
1.658867086E0,9.764912128E-1,-4.393557549E0,-7.901732445E0,9.093638361E0
1.663608440E0,8.063206673E-1,-5.490485191E0,-8.219985962E0,9.917850063E0
1.668349795E0,7.295163870E-1,-6.450085163E0,-8.446630478E0,1.065276298E1
1.673091097E0,5.783351660E-1,-7.239796638E0,-8.580633163E0,1.124172551E1
1.677832451E0,5.970950127E-1,-7.903560638E0,-8.654213905E0,1.173534028E1
1.682573805E0,7.833772898E-1,-8.527932167E0,-8.825616837E0,1.229759406E1
1.687315159E0,1.056123853E0,-9.062966347E0,-9.089692116E0,1.287925694E1
1.692056461E0,1.412706375E0,-9.413236618E0,-9.469561577E0,1.342674046E1
1.696797815E0,1.782092333E0,-9.617148399E0,-9.985682487E0,1.397781282E1
1.701539170E0,2.215297222E0,-9.657669067E0,-1.078761101E1,1.464754808E1
1.706280524E0,2.767481804E0,-9.660637856E0,-1.177665138E1,1.548148562E1
1.711021878E0,3.393408775E0,-9.646007538E0,-1.283331299E1,1.640897946E1
1.715763180E0,4.080636501E0,-9.678962708E0,-1.391754818E1,1.743651515E1
1.720504534E0,4.756586075E0,-9.774633408E0,-1.481992722E1,1.837930390E1
1.725245888E0,5.300874233E0,-9.891242981E0,-1.551521683E1,1.914831346E1
1.729987243E0,5.662686348E0,-9.947072983E0,-1.585612965E1,1.955574404E1
1.734728545E0,5.877599716E0,-9.968732834E0,-1.574292183E1,1.953871542E1
1.739469899E0,6.059712410E0,-9.973091125E0,-1.557759476E1,1.946391840E1
1.744211253E0,6.064060211E0,-9.929611206E0,-1.514495468E1,1.909815848E1
1.748952607E0,5.941255569E0,-9.898385048E0,-1.477499676E1,1.875038862E1
1.753693909E0,5.707803726E0,-9.750410080E0,-1.437458801E1,1.828327926E1
1.758435263E0,5.218772888E0,-9.538305283E0,-1.410444260E1,1.780871020E1
1.763176618E0,4.555374146E0,-9.371851921E0,-1.392697334E1,1.739378132E1
1.767917972E0,3.789006233E0,-9.272281647E0,-1.375454903E1,1.701526944E1
1.772659274E0,2.983900547E0,-9.201067924E0,-1.353561401E1,1.663659100E1
1.777400628E0,2.359890699E0,-9.086377144E0,-1.332130241E1,1.629688411E1
1.782141982E0,1.931921005E0,-8.901785851E0,-1.309084129E1,1.594817343E1
1.786883336E0,1.691591382E0,-8.642529488E0,-1.285191727E1,1.557968468E1
1.791624638E0,1.568977594E0,-8.356243134E0,-1.264318275E1,1.523609399E1
1.796365993E0,1.461471677E0,-8.035536766E0,-1.243850708E1,1.488026240E1
1.801107347E0,1.278795958E0,-7.754365444E0,-1.217103195E1,1.448790949E1
1.805848701E0,1.002775073E0,-7.453165531E0,-1.180467033E1,1.399662373E1
1.810590003E0,6.895873547E-1,-7.134826183E0,-1.130550575E1,1.338640115E1
1.815331357E0,3.429557085E-1,-6.788319111E0,-1.061777401E1,1.260698298E1
1.820072711E0,4.316353798E-2,-6.312175274E0,-9.797801971E0,1.165514235E1
1.824814065E0,-1.802508831E-1,-5.731598854E0,-8.971273422E0,1.064741577E1
1.829555368E0,-2.649464607E-1,-5.173890114E0,-8.359676361E0,9.834811864E0
1.834296722E0,-1.657073498E-1,-4.743855476E0,-8.089077950E0,9.378955474E0
1.839038076E0,4.073548317E-2,-4.531051159E0,-8.039855003E0,9.228832670E0
1.843779430E0,3.203904629E-1,-4.452816010E0,-8.052282333E0,9.207033792E0
1.848520732E0,6.128795147E-1,-4.457875252E0,-7.966981411E0,9.149921632E0
1.853262086E0,8.742483854E-1,-4.517031670E0,-7.763188362E0,9.024133138E0
1.858003440E0,1.051011324E0,-4.565604687E0,-7.350720882E0,8.716792326E0
1.862744795E0,1.209044218E0,-4.601486206E0,-6.842337132E0,8.333849090E0
1.867486097E0,1.380651593E0,-4.677355766E0,-6.348185539E0,8.005205521E0
1.872227451E0,1.528829098E0,-4.733592033E0,-5.925491810E0,7.736644307E0
1.876968805E0,1.549909830E0,-4.880435467E0,-5.549943447E0,7.551340483E0
1.881710107E0,1.572455764E0,-4.936695576E0,-5.142106056E0,7.299646226E0
1.886451461E0,1.601078033E0,-4.867484570E0,-4.701263428E0,6.953972586E0
1.891192815E0,1.641010642E0,-4.779021740E0,-4.317210674E0,6.646071977E0
1.895934118E0,1.652890801E0,-4.667261600E0,-3.988766909E0,6.358116097E0
1.900675472E0,1.614683867E0,-4.516272545E0,-3.738587618E0,6.081197174E0
1.905416826E0,1.526494384E0,-4.369986057E0,-3.510394573E0,5.809460672E0
1.910158180E0,1.405522466E0,-4.150506973E0,-3.209881306E0,5.431900177E0
1.914899482E0,1.342870593E0,-3.844628811E0,-2.843443394E0,4.966854382E0
1.919640836E0,1.240355372E0,-3.506027699E0,-2.508410931E0,4.485848534E0
1.924382190E0,1.142964363E0,-3.231075048E0,-2.235257149E0,4.091770769E0
1.929123545E0,1.073354244E0,-2.950899124E0,-2.054669857E0,3.752540899E0
1.933864847E0,1.089561701E0,-2.682581902E0,-2.049971104E0,3.547643145E0
1.938606201E0,1.129766226E0,-2.449878216E0,-2.146969795E0,3.447862280E0
1.943347555E0,1.194092274E0,-2.242801428E0,-2.367332458E0,3.472791035E0
1.948088857E0,1.167376995E0,-2.101210833E0,-2.611111641E0,3.549050579E0
1.952830211E0,1.124680877E0,-1.981139660E0,-2.953083992E0,3.729681822E0
1.957571565E0,1.044431210E0,-1.946073055E0,-3.379602432E0,4.037294823E0
1.962312868E0,9.146364927E-1,-1.980438709E0,-3.855591297E0,4.429930208E0
1.967054222E0,7.426897883E-1,-2.013713837E0,-4.367570877E0,4.866447051E0
1.971795576E0,4.528125823E-1,-2.092548847E0,-4.792213440E0,5.248724566E0
1.976536878E0,1.755774021E-2,-2.123022795E0,-5.051528454E0,5.479550509E0
1.981278232E0,-3.294946551E-1,-2.045035839E0,-5.055601120E0,5.463500800E0
1.986019586E0,-6.581428051E-1,-1.942233801E0,-4.912692547E0,5.323530046E0
1.990760940E0,-9.778680205E-1,-1.785862923E0,-4.704448700E0,5.126145708E0
1.995502243E0,-1.312510490E0,-1.566789150E0,-4.318542480E0,4.777794594E0
2.000243597E0,-1.683306932E0,-1.407425880E0,-3.712032557E0,4.312024529E0
2.004984951E0,-2.017886877E0,-1.243946552E0,-2.932549477E0,3.770824433E0
2.009726253E0,-2.334298611E0,-1.065321922E0,-1.984503746E0,3.243781115E0
2.014467607E0,-2.428307533E0,-8.488850594E-1,-8.529868126E-1,2.710142030E0
2.019208961E0,-2.356422901E0,-5.338172913E-1,3.956871033E-1,2.448317396E0
2.023950263E0,-1.953005552E0,-4.461145401E-2,1.527802467E0,2.480000252E0
2.028691618E0,-1.234309196E0,5.583014488E-1,2.704003811E0,3.024377012E0
2.033432972E0,-5.019295216E-1,1.047443390E0,3.869560242E0,4.040119721E0
2.038174274E0,2.620453835E-1,1.537357330E0,4.950764179E0,5.190587761E0
2.042915628E0,8.761916161E-1,2.053295135E0,6.251951694E0,6.638571582E0
2.047656982E0,1.218210936E0,2.570247650E0,7.742438793E0,8.248367677E0
2.052398284E0,1.380981207E0,3.111049652E0,9.021516800E0,9.642276930E0
2.057139638E0,1.869488835E0,3.925565720E0,1.024838924E1,1.113258895E1
2.061880993E0,2.571738720E0,5.115915298E0,1.113713455E1,1.252286690E1
2.066622295E0,3.517257452E0,6.732166767E0,1.177938747E1,1.401596014E1
2.071363649E0,4.625402451E0,8.698299408E0,1.224450874E1,1.571568499E1
2.076105003E0,5.715614796E0,1.074316883E1,1.250306034E1,1.744736218E1
2.080846305E0,6.743946552E0,1.276149559E1,1.260144329E1,1.916071392E1
2.085587659E0,7.549424648E0,1.459573746E1,1.284119892E1,2.085487363E1
2.090329013E0,7.830925941E0,1.630520058E1,1.367910290E1,2.267820149E1
2.095070315E0,7.702082157E0,1.808812904E1,1.541036224E1,2.497962663E1
2.099811670E0,7.280184269E0,1.970388031E1,1.769343185E1,2.746455012E1
2.104553024E0,6.926323414E0,2.087398529E1,1.991814613E1,2.967203672E1
2.109294326E0,6.674713135E0,2.144398308E1,2.124250221E1,3.091342922E1
2.114035680E0,6.559841633E0,2.137841606E1,2.139535141E1,3.094881674E1
2.118776982E0,6.452756405E0,2.090328598E1,2.116512299E1,3.043924869E1
2.123518336E0,6.232598305E0,2.040851212E1,2.106365776E1,2.998383442E1
2.128259690E0,5.835604668E0,2.004076004E1,2.130865860E1,2.982859829E1
2.133000993E0,5.217108250E0,1.962276459E1,2.149974632E1,2.957211863E1
2.137742347E0,4.735771656E0,1.899163437E1,2.133829498E1,2.895569965E1
2.142483701E0,4.712316036E0,1.804262924E1,2.051896858E1,2.772671030E1
2.147225003E0,4.854001999E0,1.685180664E1,1.889805984E1,2.578141556E1
2.151966357E0,5.143111706E0,1.549619007E1,1.653618622E1,2.323852318E1
2.156707711E0,5.458518982E0,1.399799061E1,1.367463684E1,2.031587712E1
2.161449013E0,5.457288742E0,1.217576122E1,1.086507225E1,1.720700313E1
2.166190368E0,4.914434910E0,9.959635735E0,8.604266167E0,1.404917829E1
2.170931670E0,3.792313814E0,7.701349258E0,7.306234837E0,1.127268788E1
2.175673024E0,2.487113953E0,5.779332161E0,6.788832664E0,9.256060987E0
2.180414378E0,1.635332108E0,4.248357773E0,6.720585346E0,8.117211483E0
2.185155680E0,1.316090822E0,3.058042526E0,6.835411072E0,7.603062782E0
2.189897034E0,1.214730024E0,1.981691360E0,7.013184071E0,7.388330020E0
2.194638336E0,1.042787790E0,9.823083878E-1,6.918174744E0,7.064947128E0
2.199379690E0,6.564486623E-1,-8.646011353E-2,6.221475601E0,6.256609214E0
2.204121045E0,2.248439789E-1,-1.114505768E0,5.028654575E0,5.155583843E0
2.208862347E0,-2.978667021E-1,-1.974926949E0,3.592670918E0,4.110516433E0
2.213603701E0,-8.325626850E-1,-2.572149277E0,2.149343014E0,3.453807742E0
2.218345055E0,-1.285243273E0,-2.930774689E0,9.469566345E-1,3.337366838E0
2.223086357E0,-1.680972219E0,-3.230971813E0,3.572463989E-2,3.642268895E0
2.227827711E0,-1.826653361E0,-3.561901569E0,-7.535181046E-1,4.073278142E0
2.232569013E0,-1.930518150E0,-3.986282825E0,-1.498576641E0,4.675797584E0
2.237310368E0,-1.918358564E0,-4.583561897E0,-2.114382982E0,5.399977282E0
2.242051722E0,-1.720424652E0,-5.263600349E0,-2.599267006E0,6.117314655E0
2.246793024E0,-1.223708272E0,-5.915193558E0,-2.991813183E0,6.740765749E0
2.251534378E0,-5.201122761E-1,-6.527799606E0,-3.246737719E0,7.309171656E0
2.256275680E0,2.634309530E-1,-7.078874588E0,-3.479063749E0,7.892005187E0
2.261017034E0,1.036870599E0,-7.607810020E0,-3.729858398E0,8.536141846E0
2.265758336E0,1.734137058E0,-8.099092484E0,-3.963736773E0,9.182251336E0
2.270499690E0,2.504397392E0,-8.520313263E0,-4.248562813E0,9.844695545E0
2.275241045E0,3.233804703E0,-8.860575676E0,-4.556719303E0,1.047525584E1
2.279982347E0,3.928266048E0,-9.147049904E0,-4.896799088E0,1.109407217E1
2.284723701E0,4.560048103E0,-9.354081154E0,-5.265755653E0,1.166280650E1
2.289465003E0,5.103453636E0,-9.510722160E0,-5.682417870E0,1.219790752E1
2.294206357E0,5.603807449E0,-9.626580238E0,-6.237534523E0,1.276638328E1
2.298947711E0,6.019641876E0,-9.643609047E0,-7.015276909E0,1.335849520E1
2.303689013E0,6.251071930E0,-9.630047798E0,-7.920926571E0,1.394829017E1
2.308430368E0,6.223350525E0,-9.703653336E0,-9.044522285E0,1.465245246E1
2.313171670E0,5.999282837E0,-9.852832794E0,-1.027777576E1,1.544999622E1
2.317913024E0,5.641034126E0,-9.987201691E0,-1.147205067E1,1.622262032E1
2.322654326E0,5.121882439E0,-1.007880688E1,-1.243600368E1,1.680685025E1
2.327395680E0,4.364372253E0,-1.017156601E1,-1.337778187E1,1.736299363E1
2.332137034E0,3.560853004E0,-1.031440353E1,-1.416337967E1,1.787925944E1
2.336878336E0,2.815351009E0,-1.042723274E1,-1.495297718E1,1.844572879E1
2.341619690E0,2.151003361E0,-1.054002953E1,-1.563656521E1,1.897949444E1
2.346360993E0,1.579643488E0,-1.066142750E1,-1.608735466E1,1.936399468E1
2.351102347E0,1.116502285E0,-1.075257492E1,-1.624987793E1,1.951724821E1
2.355843649E0,7.508962154E-1,-1.078700542E1,-1.622824860E1,1.950075341E1
2.360585003E0,4.868564606E-1,-1.074343395E1,-1.602777863E1,1.930150486E1
2.365326357E0,2.955818176E-1,-1.054331875E1,-1.558888531E1,1.882185655E1
2.370067659E0,2.246804237E-1,-1.035924530E1,-1.514575958E1,1.835098030E1
2.374809013E0,1.328463554E-1,-1.029908085E1,-1.455912971E1,1.783415186E1
2.379550315E0,-5.149054527E-2,-1.023427773E1,-1.378026390E1,1.716504486E1
2.384291670E0,-2.299327850E-1,-1.018503189E1,-1.289383030E1,1.643285135E1
2.389032972E0,-3.398189545E-1,-1.013595104E1,-1.192659569E1,1.565556339E1
2.393774326E0,-4.063174725E-1,-1.005262566E1,-1.090745354E1,1.483889885E1
2.398515628E0,-3.447060585E-1,-9.945997238E0,-1.002083683E1,1.412299027E1
2.403256982E0,-1.783547401E-1,-9.843370438E0,-9.391709328E0,1.360617345E1
2.407998284E0,9.288549423E-3,-9.823898315E0,-9.241252899E0,1.348739484E1
2.412739638E0,2.969040871E-1,-9.824640274E0,-9.724440575E0,1.382665733E1
2.417480940E0,5.356512070E-1,-9.884681702E0,-1.073633575E1,1.460351875E1
2.422222295E0,6.845322847E-1,-1.003556633E1,-1.192380238E1,1.559994356E1
2.426963649E0,7.077139616E-1,-1.034929085E1,-1.305365849E1,1.667353232E1
2.431704951E0,7.344343662E-1,-1.067055321E1,-1.414153481E1,1.773085182E1
2.436446305E0,8.868257999E-1,-1.090631008E1,-1.520280838E1,1.873124241E1
2.441187607E0,1.090881705E0,-1.096409035E1,-1.595833778E1,1.939252033E1
2.445928961E0,1.100987434E0,-1.102035236E1,-1.614030647E1,1.957472433E1
2.450670263E0,8.568108082E-1,-1.114059067E1,-1.545124817E1,1.906798246E1
2.455411618E0,5.123745203E-1,-1.132279778E1,-1.374091911E1,1.781238713E1
2.460152920E0,5.606263876E-1,-1.138258934E1,-1.102319622E1,1.585523563E1
2.464894274E0,1.136755228E0,-1.097874451E1,-7.658514500E0,1.343420588E1
2.469635576E0,1.832843661E0,-1.026520729E1,-4.423350334E0,1.132695126E1
2.474376930E0,2.349940538E0,-9.442634583E0,-1.666359901E0,9.872300832E0
2.479118232E0,2.582687140E0,-8.619611740E0,3.013706207E-1,9.003266277E0
2.483859586E0,2.468741894E0,-7.955679417E0,1.500264168E0,8.463941995E0
2.488600888E0,2.046896935E0,-7.472502708E0,2.055012703E0,8.015682192E0
2.493342243E0,1.485871434E0,-7.073364258E0,1.941264153E0,7.483902882E0
2.498083545E0,8.477485180E-1,-6.727687836E0,1.260829926E0,6.897111951E0
2.502824899E0,9.392762184E-2,-6.299125671E0,2.153863907E-1,6.303506795E0
2.507566201E0,-7.422177792E-1,-5.847072601E0,-1.122973442E0,6.000017882E0
2.512307555E0,-1.607526779E0,-5.358948708E0,-2.577104092E0,6.159865185E0
2.517048857E0,-2.424170494E0,-4.767240524E0,-4.120558739E0,6.751458296E0
2.521790211E0,-3.294876337E0,-4.210438728E0,-5.623715878E0,7.759522191E0
2.526531513E0,-4.357370377E0,-3.729811907E0,-6.801294804E0,8.896953662E0
2.531272868E0,-5.507303238E0,-3.329748392E0,-7.403713703E0,9.809821095E0
2.536014170E0,-6.436370850E0,-2.826862812E0,-7.530025005E0,1.030142222E1
2.540755524E0,-6.962224007E0,-2.280033112E0,-7.299942493E0,1.034216005E1
2.545496826E0,-7.138507366E0,-1.700334072E0,-6.832568169E0,1.002663509E1
2.550238180E0,-6.870263100E0,-1.089234471E0,-6.215573788E0,9.328467414E0
2.554979482E0,-6.211103439E0,-4.908421040E-1,-5.591609955E0,8.371668519E0
2.559720836E0,-5.236261845E0,3.947377205E-2,-4.993379593E0,7.235595072E0
2.564462138E0,-4.091271877E0,4.992604256E-1,-4.468357086E0,6.078978664E0
2.569203440E0,-2.769940615E0,8.338608742E-1,-4.095682144E0,5.014230469E0
2.573944795E0,-1.569710255E0,1.113119960E0,-3.660529137E0,4.135516883E0
2.578686149E0,-8.085687160E-1,1.194022894E0,-3.122729301E0,3.439609328E0
2.583427451E0,-2.570059299E-1,1.218013763E0,-2.552195072E0,2.839596672E0
2.588168753E0,2.730324268E-1,1.385682344E0,-1.966247082E0,2.420906824E0
2.592910107E0,7.036309242E-1,1.669919848E0,-1.301049709E0,2.230797867E0
2.597651409E0,9.505608082E-1,2.108209133E0,-6.288118362E-1,2.396563357E0
2.602392763E0,1.004593849E0,2.652087688E0,-5.715274811E-2,2.836555014E0
2.607134065E0,7.160675526E-1,3.258084297E0,3.760385513E-1,3.356973491E0
2.611875420E0,-1.540210247E-1,3.839957714E0,7.170991898E-1,3.909377057E0
2.616616722E0,-1.404201984E0,4.600967884E0,1.136673927E0,4.942946115E0
2.621358076E0,-2.675434828E0,5.507683754E0,1.776494026E0,6.375614706E0
2.626099378E0,-3.724195242E0,6.387660027E0,3.119783401E0,8.025265060E0
2.630840732E0,-4.400149822E0,7.344767570E0,5.442699432E0,1.014543771E1
2.635582034E0,-4.818298340E0,8.233451843E0,8.479919434E0,1.276380671E1
2.640323336E0,-5.292872429E0,8.738561630E0,1.163394165E1,1.548307322E1
2.645064690E0,-5.708181381E0,8.958704948E0,1.517549324E1,1.852396621E1
2.649805993E0,-6.075695038E0,8.835200310E0,1.839005280E1,2.128776354E1
2.654547347E0,-6.427227974E0,8.475028992E0,2.136071777E1,2.386243155E1
2.659288649E0,-6.770416260E0,7.937926769E0,2.411909103E1,2.627888449E1
2.664030003E0,-6.974810600E0,7.336709499E0,2.668565178E1,2.854118603E1
2.668771305E0,-6.988170624E0,6.712427139E0,2.922706032E1,3.079143163E1
2.673512659E0,-7.009148598E0,6.202064514E0,3.191070366E1,3.325487598E1
2.678253961E0,-7.278505325E0,5.833215714E0,3.478512573E1,3.601399752E1
2.682995263E0,-7.967488289E0,5.709340572E0,3.796786118E1,3.921270102E1
2.687736618E0,-8.933650017E0,5.838029861E0,4.207757568E1,4.340984993E1
2.692477920E0,-1.011124229E1,6.145269394E0,4.709590149E1,4.855950467E1
2.697219274E0,-1.160841656E1,6.288298607E0,5.211698151E1,5.376316393E1
2.701960576E0,-1.307214260E1,5.829524040E0,5.544829559E1,5.726585149E1
2.706701878E0,-1.381843948E1,4.846613884E0,5.599552155E1,5.787864346E1
2.711443232E0,-1.342014885E1,3.810539007E0,5.458649826E1,5.634098326E1
2.716184534E0,-1.205888081E1,3.071572781E0,5.186766434E1,5.333953289E1
2.720925888E0,-1.045050430E1,2.663615704E0,4.819336700E1,4.938530664E1
2.725667190E0,-9.350629807E0,2.594148636E0,4.405461121E1,4.511067117E1
2.730408545E0,-8.899920464E0,2.561953306E0,3.993103790E1,4.099097434E1
2.735149847E0,-8.201891899E0,2.735770702E0,3.594903183E1,3.697415802E1
2.739891149E0,-6.832151413E0,3.133746624E0,3.192976761E1,3.280257186E1
2.744632503E0,-4.901952744E0,3.416074753E0,2.795258904E1,2.858401548E1
2.749373805E0,-2.340830564E0,3.320264339E0,2.395923233E1,2.430120279E1
2.754115159E0,8.094656467E-1,2.970331669E0,2.063762665E1,2.086599479E1
2.758856461E0,4.145552635E0,2.539907455E0,1.884838104E1,1.946530772E1
2.763597763E0,7.528757095E0,2.168433189E0,1.852025414E1,2.010930380E1
2.768339118E0,1.066548920E1,1.680821896E0,1.865789223E1,2.155678001E1
2.773080420E0,1.303700256E1,1.050409317E0,1.857805252E1,2.272027357E1
2.777821774E0,1.434666729E1,3.140568733E-1,1.771721268E1,2.279967366E1
2.782563076E0,1.501891518E1,-4.249348640E-1,1.564056587E1,2.168814615E1
2.787304378E0,1.502908802E1,-1.099246979E0,1.245019722E1,1.954710315E1
2.792045732E0,1.414204884E1,-1.651769638E0,8.351566315E0,1.650680309E1
2.796787034E0,1.236191559E1,-2.051256180E0,3.888255119E0,1.312033295E1
2.801528388E0,1.000342369E1,-2.288479090E0,-3.538312912E-1,1.026795105E1
2.806269690E0,7.321148872E0,-2.589338779E0,-4.013930798E0,8.741598056E0
2.811010993E0,4.653269291E0,-3.096789837E0,-7.044253349E0,8.992470608E0
2.815752347E0,2.153996468E0,-3.648641586E0,-9.503838539E0,1.040553858E1
2.820493649E0,-8.115291595E-2,-4.107400894E0,-1.147242546E1,1.218580625E1
2.825234951E0,-1.969796658E0,-4.515280247E0,-1.319158173E1,1.408139492E1
2.829976305E0,-3.565247059E0,-4.835325718E0,-1.485933685E1,1.602782746E1
2.834717607E0,-4.757925987E0,-5.104160786E0,-1.646570015E1,1.788322114E1
2.839458961E0,-5.538481236E0,-5.402967930E0,-1.829031372E1,1.985956729E1
2.844200263E0,-5.663465977E0,-5.878854752E0,-2.003936386E1,2.163820427E1
2.848941565E0,-5.250086784E0,-6.543950081E0,-2.202714920E1,2.357078692E1
2.853682920E0,-4.476458073E0,-7.207388401E0,-2.356814575E1,2.504880473E1
2.858424222E0,-3.471872807E0,-7.738615036E0,-2.472826385E1,2.614243862E1
2.863165524E0,-2.291967154E0,-8.167512894E0,-2.565236282E1,2.701860653E1
2.867906878E0,-9.015886784E-1,-8.471561432E0,-2.619820023E1,2.754860995E1
2.872648180E0,3.311159611E-1,-8.851191521E0,-2.601288605E1,2.747951000E1
2.877389482E0,1.163206816E0,-9.199625015E0,-2.515650177E1,2.681111210E1
2.882130836E0,1.735094309E0,-9.492071152E0,-2.399245262E1,2.586015757E1
2.886872138E0,2.178737879E0,-9.536131859E0,-2.295561790E1,2.495285761E1
2.891613493E0,2.265271187E0,-9.423835754E0,-2.199272537E1,2.403372845E1
2.896354795E0,2.131646872E0,-9.253504753E0,-2.137621117E1,2.339046114E1
2.901096097E0,1.993020535E0,-9.017702103E0,-2.100555801E1,2.294612276E1
2.905837451E0,1.841740131E0,-8.761548042E0,-2.057485962E1,2.243839520E1
2.910578753E0,1.567832828E0,-8.542295456E0,-1.991703033E1,2.172825370E1
2.915320055E0,1.104414225E0,-8.317062378E0,-1.908006287E1,2.084327365E1
2.920061409E0,3.914097548E-1,-8.060022354E0,-1.807583618E1,1.979527761E1
2.924802711E0,-4.854519367E-1,-7.752902985E0,-1.692309189E1,1.862080039E1
2.929544013E0,-1.402357697E0,-7.442140102E0,-1.571690845E1,1.744629668E1
2.934285368E0,-2.224094868E0,-7.085355759E0,-1.456444263E1,1.634845110E1
2.939026670E0,-2.904464006E0,-6.723417282E0,-1.363524246E1,1.547772878E1
2.943767972E0,-3.395255327E0,-6.494636059E0,-1.305358696E1,1.497010985E1
2.948509326E0,-3.687335014E0,-6.412425041E0,-1.263562393E1,1.464153771E1
2.953250628E0,-3.482439756E0,-6.298874378E0,-1.220983124E1,1.417332650E1
2.957991930E0,-2.728880405E0,-6.184815884E0,-1.141337490E1,1.326513710E1
2.962733284E0,-1.773878932E0,-6.221461773E0,-1.009125710E1,1.198693884E1
2.967474586E0,-7.862166166E-1,-6.318902493E0,-8.477817535E0,1.060283243E1
2.972215888E0,2.051467896E-1,-6.371297836E0,-6.655872822E0,9.216081833E0
2.976957243E0,1.096077681E0,-6.154142857E0,-4.693192959E0,7.816707794E0
2.981698545E0,1.778573275E0,-5.737270832E0,-2.851065159E0,6.648922622E0
2.986439847E0,2.173441887E0,-5.285446167E0,-1.517530441E0,5.912925626E0
2.991181201E0,2.322749615E0,-4.969404221E0,-8.489475250E-1,5.550752740E0
2.995922503E0,2.259179115E0,-4.846578121E0,-7.126121521E-1,5.394536666E0
3.000663805E0,1.798911333E0,-4.730835915E0,-5.335102081E-1,5.089353945E0
3.005405159E0,1.156768560E0,-4.372372627E0,-2.148056030E-2,4.522854995E0
3.010146461E0,5.240077376E-1,-3.720377445E0,6.591777802E-1,3.814486570E0
3.014887763E0,-5.247688293E-2,-2.960262299E0,1.191082001E0,3.191329352E0
3.019629065E0,-4.751844406E-1,-2.285819769E0,1.330780983E0,2.687331445E0
3.024370420E0,-6.004432440E-1,-1.676678419E0,9.755468369E-1,2.030633951E0
3.029111722E0,-4.660052061E-1,-1.235504627E0,1.653718948E-1,1.330781875E0
3.033853024E0,-3.546166420E-1,-9.927659035E-1,-8.449835777E-1,1.351049351E0
3.038594378E0,-4.212870598E-1,-9.289574623E-1,-1.877799988E0,2.136955205E0
3.043335680E0,-5.537641048E-1,-9.369015694E-1,-2.688520432E0,2.900445025E0
3.048076982E0,-5.566209555E-1,-1.058413744E0,-3.161909580E0,3.380493860E0
3.052818336E0,-7.825453281E-1,-1.567540646E0,-3.445830345E0,3.865657465E0
3.057559638E0,-1.064185262E0,-2.420094252E0,-3.831229687E0,4.654854173E0
3.062300940E0,-1.192399621E0,-3.316286564E0,-4.266471863E0,5.533746975E0
3.067042243E0,-1.082670808E0,-3.923722029E0,-4.469772339E0,6.045381328E0
3.071783597E0,-7.607364655E-1,-4.308025360E0,-4.524550438E0,6.293596677E0
3.076524899E0,-5.036406517E-1,-4.614010334E0,-4.580307007E0,6.520886255E0
3.081266201E0,-2.900353670E-1,-4.907426834E0,-4.656904221E0,6.771537164E0
3.086007555E0,9.799778461E-2,-5.177506447E0,-4.805182457E0,7.064414697E0
3.090748857E0,3.862081766E-1,-5.521146774E0,-4.920542717E0,7.405670739E0
3.095490159E0,2.196502686E-1,-5.999873161E0,-4.790797710E0,7.681045951E0
3.100231461E0,4.936075211E-2,-6.340613842E0,-4.548418045E0,7.803456099E0
3.104972815E0,1.103388071E-1,-6.506946564E0,-4.474228859E0,7.897547222E0
3.109714118E0,4.370256066E-1,-6.604948044E0,-4.672493935E0,8.102378022E0
3.114455420E0,1.035328150E0,-6.813828468E0,-5.288542271E0,8.687280479E0
3.119196722E0,1.780005932E0,-7.170809746E0,-6.193050385E0,9.640684965E0
3.123938076E0,2.630186558E0,-7.638406277E0,-7.283598900E0,1.087722137E1
3.128679378E0,3.357614994E0,-8.180982590E0,-8.549181938E0,1.230002302E1
3.133420680E0,3.527538300E0,-8.686079979E0,-9.998405457E0,1.370618924E1
3.138162034E0,2.986304522E0,-9.218712807E0,-1.151336098E1,1.504859334E1
3.142903336E0,2.163090706E0,-9.657434464E0,-1.309378433E1,1.641317123E1
3.147644638E0,1.559526682E0,-9.942716599E0,-1.473733139E1,1.784597079E1
3.152385940E0,1.176418662E0,-1.007260513E1,-1.622632599E1,1.913465417E1
3.157127295E0,9.673256874E-1,-9.993158340E0,-1.729477692E1,1.999770590E1
3.161868597E0,9.677785039E-1,-9.653951645E0,-1.773795700E1,2.021807350E1
3.166609899E0,9.003573060E-1,-9.161424637E0,-1.745030594E1,1.972955960E1
3.171351201E0,6.999311447E-1,-8.544460297E0,-1.640154266E1,1.850697996E1
3.176092555E0,2.798832655E-1,-8.017412186E0,-1.440692711E1,1.648989938E1
3.180833857E0,3.070409298E-1,-7.417557716E0,-1.153160477E1,1.371467627E1
3.185575159E0,1.490809321E0,-6.328471184E0,-7.938364029E0,1.026107613E1
3.190316461E0,3.184932470E0,-5.190886497E0,-4.536603451E0,7.594067970E0
3.195057815E0,4.521231174E0,-4.415571213E0,-1.264329910E0,6.444946128E0
3.199799118E0,5.389495850E0,-3.979128838E0,2.066748619E0,7.010818902E0
3.204540420E0,5.905958176E0,-3.520316124E0,5.716667175E0,8.941658190E0
3.209281722E0,5.903212547E0,-2.665617943E0,9.732327461E0,1.169066445E1
3.214023024E0,4.429885864E0,-1.108023167E0,1.386702919E1,1.459952406E1
3.218764378E0,-3.731012344E-2,8.374090195E-1,1.778133583E1,1.780108283E1
3.223505680E0,-6.630330563E0,2.737360954E0,1.998559761E1,2.123390073E1
3.228246982E0,-1.380971336E1,5.180648804E0,2.127902603E1,2.589100720E1
3.232988284E0,-2.020157814E1,8.675010681E0,2.137270927E1,3.066190261E1
3.237729638E0,-2.475198364E1,1.347993183E1,2.023007584E1,3.469330230E1
3.242470940E0,-2.788560486E1,1.927557182E1,1.678378105E1,3.782657708E1
3.247212243E0,-3.128522491E1,2.460229301E1,1.117634392E1,4.133943375E1
3.251953545E0,-3.585483551E1,2.892096138E1,6.711286545E0,4.655139744E1
3.256694847E0,-4.083934784E1,3.222457886E1,5.972963810E0,5.236365258E1
3.261436201E0,-4.437626266E1,3.450017548E1,9.210638046E0,5.695920162E1
3.266177503E0,-4.621462631E1,3.478335953E1,1.478322220E1,5.970106736E1
3.270918805E0,-4.567481995E1,3.330307007E1,2.089121437E1,6.026380747E1
3.275660107E0,-4.187820816E1,3.134230042E1,2.659296799E1,5.867972444E1
3.280401461E0,-3.612923431E1,2.929593277E1,3.106929779E1,5.593634341E1
3.285142763E0,-2.985988045E1,2.742555428E1,3.388664246E1,5.284011757E1
3.289884065E0,-2.398728752E1,2.551593781E1,3.495025253E1,4.947699664E1
3.294625368E0,-1.882772827E1,2.338072395E1,3.446846390E1,4.570794907E1
3.299366670E0,-1.434726334E1,2.122373009E1,3.282901764E1,4.164174688E1
3.304108024E0,-1.049313164E1,1.917687416E1,3.030385208E1,3.736551572E1
3.308849326E0,-7.312415600E0,1.726698112E1,2.730080986E1,3.312030009E1
3.313590628E0,-4.735038757E0,1.568817520E1,2.392094803E1,2.899570982E1
3.318331930E0,-2.660313129E0,1.441435814E1,2.035331726E1,2.508203560E1
3.323073232E0,-1.048127174E0,1.322349358E1,1.687225914E1,2.146235032E1
3.327814586E0,1.730906963E-1,1.188871193E1,1.353823853E1,1.801819453E1
3.332555888E0,1.213713646E0,1.030066490E1,1.006390095E1,1.445195144E1
3.337297190E0,2.310021400E0,8.558813095E0,6.474990368E0,1.097793153E1
3.342038493E0,3.311478376E0,6.712584972E0,2.955309391E0,8.047269080E0
3.346779795E0,4.130142212E0,4.758362293E0,-3.540320396E-1,6.310738870E0
3.351521149E0,4.379678726E0,2.691776276E0,-3.134176731E0,6.020822954E0
3.356262451E0,3.770149946E0,7.938275337E-1,-4.897639275E0,6.231457553E0
3.361003753E0,3.216622591E0,-8.273658752E-1,-6.314403057E0,7.134625509E0
3.365745055E0,2.743942499E0,-2.120699883E0,-7.501461029E0,8.264291016E0
3.370486357E0,2.360772848E0,-3.232794523E0,-8.544986725E0,9.436154248E0
3.375227659E0,2.341954708E0,-4.273555756E0,-9.555171967E0,1.072610563E1
3.379969013E0,2.525522947E0,-5.261703014E0,-1.044096375E1,1.196150111E1
3.384710315E0,2.688591003E0,-6.156706810E0,-1.098145771E1,1.287346005E1
3.389451618E0,2.884054422E0,-6.909069538E0,-1.112760353E1,1.341180719E1
3.394192920E0,3.119210482E0,-7.519965172E0,-1.104301739E1,1.371960580E1
3.398934222E0,3.406394482E0,-8.059965134E0,-1.098673248E1,1.404545663E1
3.403675576E0,3.691184998E0,-8.575267792E0,-1.099795246E1,1.442619225E1
3.408416878E0,3.964083195E0,-9.063866615E0,-1.116429138E1,1.491673676E1
3.413158180E0,4.284380913E0,-9.509045601E0,-1.149018097E1,1.551780032E1
3.417899482E0,4.676948547E0,-9.896226883E0,-1.200927544E1,1.624905692E1
3.422640784E0,5.037106991E0,-1.016979218E1,-1.267917633E1,1.701642243E1
3.427382086E0,5.326953411E0,-1.044367790E1,-1.352718830E1,1.790060513E1
3.432123440E0,5.470150948E0,-1.066655731E1,-1.440860176E1,1.874315344E1
3.436864743E0,5.536206245E0,-1.083976650E1,-1.525778389E1,1.951794268E1
3.441606045E0,5.558195114E0,-1.079990768E1,-1.586319542E1,1.997930199E1
3.446347347E0,5.480695724E0,-1.066396141E1,-1.607044411E1,2.005036839E1
3.451088649E0,5.032880783E0,-1.048914337E1,-1.629421234E1,2.002132297E1
3.455829951E0,4.321098328E0,-1.026575661E1,-1.631991005E1,1.975846941E1
3.460571253E0,3.570437431E0,-1.004358482E1,-1.654577255E1,1.968207837E1
3.465312607E0,2.782957315E0,-9.850580215E0,-1.689413261E1,1.975324021E1
3.470053909E0,2.010784626E0,-9.731161118E0,-1.727823067E1,1.993178383E1
3.474795211E0,1.265318632E0,-9.603159904E0,-1.763043404E1,2.011601143E1
3.479536513E0,6.372570992E-1,-9.473115921E0,-1.783278465E1,2.020282729E1
3.484277815E0,-3.569602966E-2,-9.302441597E0,-1.776699448E1,2.005499406E1
3.489019118E0,-5.470464230E-1,-9.093626976E0,-1.745064926E1,1.968548884E1
3.493760420E0,-7.452578545E-1,-8.789352417E0,-1.699443054E1,1.914729210E1
3.498501774E0,-6.358764172E-1,-8.516400337E0,-1.644161987E1,1.852728468E1
3.503243076E0,-3.816545010E-1,-8.300828934E0,-1.584724617E1,1.789370371E1
3.507984378E0,-3.544092178E-3,-8.163865089E0,-1.515841293E1,1.721703193E1
3.512725680E0,3.944208622E-1,-8.028816223E0,-1.430273819E1,1.640688202E1
3.517466982E0,9.404360056E-1,-7.888496399E0,-1.343010235E1,1.560385992E1
3.522208284E0,1.528027296E0,-7.786021709E0,-1.251798344E1,1.482082693E1
3.526949586E0,1.950464845E0,-7.699997425E0,-1.151509666E1,1.398898583E1
3.531690940E0,2.192468405E0,-7.633338928E0,-1.038187790E1,1.307127269E1
3.536432243E0,2.398345470E0,-7.548615456E0,-9.157702446E0,1.210773184E1
3.541173545E0,2.570831060E0,-7.420644760E0,-7.917724609E0,1.115192826E1
3.545914847E0,2.719573736E0,-7.222017288E0,-6.665366650E0,1.019709408E1
3.550656149E0,2.789388657E0,-7.011600971E0,-5.437590599E0,9.301109008E0
3.555397451E0,2.737051487E0,-6.800298214E0,-4.326521873E0,8.512009056E0
3.560138753E0,2.481319904E0,-6.632942200E0,-3.146544456E0,7.749426605E0
3.564880055E0,1.867140532E0,-6.463947296E0,-1.807676792E0,6.966815901E0
3.569621357E0,1.071979046E0,-6.171848297E0,-3.202667236E-1,6.272433439E0
3.574362711E0,3.139917850E-1,-5.792984962E0,9.679784775E-1,5.881687509E0
3.579104013E0,-2.747313976E-1,-5.351051807E0,1.850346565E0,5.668599051E0
3.583845315E0,-5.667341948E-1,-4.930853367E0,2.263168812E0,5.454945980E0
3.588586618E0,-5.084959269E-1,-4.544085503E0,2.087136745E0,5.026273068E0
3.593327920E0,-1.682387590E-1,-4.184577942E0,1.362715244E0,4.404087836E0
3.598069222E0,1.609451771E-1,-3.926875591E0,3.571534157E-1,3.946367168E0
3.602810524E0,5.040261745E-1,-3.716273308E0,-6.243748665E-1,3.801917103E0
3.607551826E0,9.719825387E-1,-3.476834536E0,-1.489650726E0,3.905404938E0
3.612293128E0,1.390958786E0,-3.175680637E0,-2.235042095E0,4.124939639E0
3.617034482E0,1.708747268E0,-2.895047903E0,-2.722874165E0,4.326102553E0
3.621775784E0,1.760020256E0,-2.672287464E0,-2.925369740E0,4.335502244E0
3.626517086E0,1.486611843E0,-2.545600176E0,-2.706768990E0,4.002086130E0
3.631258388E0,1.114231110E0,-2.438971758E0,-2.237353802E0,3.492255179E0
3.635999690E0,6.908986568E-1,-2.331552982E0,-1.770983696E0,3.008299107E0
3.640740993E0,2.167129517E-1,-2.286146641E0,-1.482398987E0,2.733301616E0
3.645482295E0,-2.549476624E-1,-2.171409607E0,-1.254533291E0,2.520688749E0
3.650223597E0,-6.842195988E-1,-1.915201426E0,-1.169152260E0,2.345862308E0
3.654964899E0,-1.136216879E0,-1.459165573E0,-1.327366352E0,2.276412616E0
3.659706201E0,-1.614153862E0,-8.351883888E-1,-1.849801064E0,2.593221223E0
3.664447503E0,-2.090399742E0,-6.947898865E-2,-2.812080383E0,3.504624729E0
3.669188805E0,-2.611971140E0,6.879115105E-1,-4.175376415E0,4.972864737E0
3.673930159E0,-3.467339993E0,1.121895313E0,-5.604260445E0,6.684970520E0
3.678671461E0,-4.623890877E0,1.104948044E0,-6.573663712E0,8.112603257E0
3.683412763E0,-5.943697929E0,7.966570854E-1,-6.753782272E0,9.031931276E0
3.688154065E0,-7.303873062E0,3.182430267E-1,-6.055602551E0,9.493058653E0
3.692895368E0,-8.541563988E0,-2.471938133E-1,-4.590180397E0,9.699957537E0
3.697636670E0,-9.212926865E0,-8.242592812E-1,-2.706979752E0,9.637694960E0
3.702377972E0,-9.150947571E0,-1.346573114E0,-8.555793762E-1,9.288978236E0
3.707119274E0,-8.405982971E0,-1.875680685E0,7.582893372E-1,8.646023968E0
3.711860576E0,-7.587198734E0,-2.572168827E0,1.986075401E0,8.253855621E0
3.716601878E0,-6.973894596E0,-3.562314987E0,2.934725761E0,8.362888807E0
3.721343180E0,-6.678888321E0,-4.659146309E0,3.753919601E0,8.967000943E0
3.726084482E0,-6.222168922E0,-5.723673344E0,4.327860832E0,9.497694564E0
3.730825784E0,-5.333744526E0,-6.488924026E0,4.402108192E0,9.483328647E0
3.735567086E0,-4.109926224E0,-7.061361313E0,3.662503242E0,8.953672272E0
3.740308388E0,-2.755379438E0,-7.361448765E0,2.354354858E0,8.205244089E0
3.745049743E0,-1.508273840E0,-7.561886787E0,4.132881165E-1,7.721905777E0
3.749791045E0,-6.769587994E-1,-7.744274139E0,-1.936260223E0,8.011314425E0
3.754532347E0,-5.377566814E-2,-7.846426010E0,-4.530589104E0,9.060658397E0
3.759273649E0,2.627989054E-1,-7.796720505E0,-7.137206554E0,1.057343990E1
3.764014951E0,1.505770683E-1,-7.696579933E0,-9.492777824E0,1.222181848E1
3.768756253E0,-2.141389847E-1,-7.418375969E0,-1.161896420E1,1.378689546E1
3.773497555E0,-5.049688816E-1,-6.744287491E0,-1.367374992E1,1.525489575E1
3.778238857E0,-3.622626066E-1,-5.585627556E0,-1.579620743E1,1.675859894E1
3.782980159E0,8.278870583E-2,-4.271618366E0,-1.814272881E1,1.863899638E1
3.787721461E0,5.612266064E-1,-3.009220123E0,-2.017375946E1,2.040467965E1
3.792462763E0,1.104740620E0,-1.747369051E0,-2.165610504E1,2.175455437E1
3.797204065E0,1.669793725E0,-4.734387398E-1,-2.155613899E1,2.162589845E1
3.801945368E0,2.664536238E0,1.288769245E0,-1.914981842E1,1.937720891E1
3.806686670E0,4.305929661E0,3.930501938E0,-1.492496681E1,1.602324905E1
3.811427972E0,5.737048626E0,7.138469696E0,-9.497954369E0,1.319403705E1
3.816169274E0,5.821038246E0,1.022982407E1,-2.749853134E0,1.208699627E1
3.820910576E0,3.831812382E0,1.260635567E1,6.057442665E0,1.450157236E1
3.825651878E0,-1.457341194E0,1.409886169E1,1.693470383E1,2.208361243E1
3.830393180E0,-1.014645576E1,1.475933838E1,2.812452126E1,3.334332512E1
3.835134482E0,-2.012394333E1,1.548379707E1,3.847402573E1,4.609741557E1
3.839875784E0,-2.921811104E1,1.593038750E1,4.760606384E1,5.808452955E1
3.844617086E0,-3.729388046E1,1.615181732E1,5.185078812E1,6.588033812E1
3.849358388E0,-4.187147141E1,1.652736664E1,5.070294952E1,6.780238238E1
3.854099690E0,-4.115186691E1,1.786997604E1,4.607737732E1,6.431125014E1
3.858840993E0,-3.543853378E1,2.012907791E1,4.133953094E1,5.805192738E1
3.863582295E0,-2.837931633E1,2.179049301E1,3.836771774E1,5.246230023E1
3.868323597E0,-2.208868027E1,2.161963081E1,3.809025192E1,4.905288497E1
3.873064899E0,-1.691850471E1,1.992169380E1,4.022612381E1,4.797135314E1
3.877806201E0,-1.264798164E1,1.813633537E1,4.381588745E1,4.907881512E1
3.882547503E0,-8.843428612E0,1.704503822E1,4.713445282E1,5.089593501E1
3.887288805E0,-5.525461674E0,1.654410553E1,4.842056274E1,5.146638758E1
3.892030107E0,-2.778014898E0,1.614117432E1,4.681545639E1,4.959780068E1
3.896771409E0,-7.247023582E-1,1.546022224E1,4.255675888E1,4.528378729E1
3.901512711E0,4.254188538E-1,1.451045513E1,3.634252548E1,3.913455567E1
3.906254013E0,6.558033824E-1,1.352321243E1,2.921779251E1,3.220227867E1
3.910995315E0,4.558813572E-2,1.257386780E1,2.229129410E1,2.559308544E1
3.915736618E0,-1.332375169E0,1.176513481E1,1.618362427E1,2.005251394E1
3.920477920E0,-2.877428770E0,1.103134537E1,1.074295712E1,1.566465143E1
3.925219222E0,-4.101196289E0,1.011773014E1,5.968590736E0,1.244236109E1
3.929960524E0,-4.493676662E0,9.099526405E0,1.749971390E0,1.029839359E1
3.934701826E0,-4.493204117E0,7.884238243E0,-2.102561951E0,9.315087904E0
3.939443128E0,-4.256865025E0,6.360006332E0,-5.657094002E0,9.517000206E0
3.944184430E0,-4.045433998E0,4.455016613E0,-8.630518913E0,1.052133860E1
3.948925732E0,-4.005356789E0,2.338124275E0,-1.086227036E1,1.181095362E1
3.953667034E0,-4.244565487E0,2.770819664E-1,-1.215329361E1,1.287616621E1
3.958408336E0,-4.331917763E0,-1.834480762E0,-1.278970718E1,1.362745174E1
3.963149638E0,-4.216216087E0,-3.782523870E0,-1.299020481E1,1.417142851E1
3.967890940E0,-3.885274410E0,-5.687408447E0,-1.320270061E1,1.489138260E1
3.972632243E0,-3.278327465E0,-7.547088146E0,-1.341993999E1,1.574168860E1
3.977373545E0,-2.386144161E0,-9.400144577E0,-1.346871853E1,1.659707145E1
3.982114847E0,-1.214270115E0,-1.121354294E1,-1.320544624E1,1.736668672E1
3.986856149E0,2.291698456E-1,-1.276522636E1,-1.275305271E1,1.804560546E1
3.991597451E0,2.135870934E0,-1.417222977E1,-1.280299950E1,1.921798213E1
3.996338753E0,4.033890724E0,-1.539586067E1,-1.310551548E1,2.061696719E1
4.001080055E0,5.929290771E0,-1.640247726E1,-1.333868599E1,2.195719229E1
4.005821357E0,7.985119820E0,-1.710891914E1,-1.346007633E1,2.318730057E1
4.010562659E0,9.991958618E0,-1.747575188E1,-1.351821899E1,2.424836872E1
4.015303961E0,1.181984043E1,-1.751941681E1,-1.340873528E1,2.502863909E1
4.020045263E0,1.336524487E1,-1.736475754E1,-1.309229088E1,2.552592124E1
4.024786565E0,1.467544270E1,-1.699323845E1,-1.258777809E1,2.574084164E1
4.029527868E0,1.563177872E1,-1.651063347E1,-1.212068081E1,2.576556669E1
4.034269170E0,1.622623825E1,-1.592158699E1,-1.185279465E1,2.563740394E1
4.039010472E0,1.638137436E1,-1.529002666E1,-1.184117126E1,2.534457887E1
4.043751774E0,1.623524857E1,-1.466450977E1,-1.211235332E1,2.500680399E1
4.048493076E0,1.578616714E1,-1.407602978E1,-1.222672844E1,2.443011616E1
4.053234378E0,1.509089756E1,-1.353769493E1,-1.275712681E1,2.395305111E1
4.057975680E0,1.405811405E1,-1.295259762E1,-1.301756001E1,2.312698044E1
4.062716930E0,1.292310905E1,-1.234820080E1,-1.309260559E1,2.215628876E1
4.067458232E0,1.176509190E1,-1.178558350E1,-1.287990189E1,2.105253520E1
4.072199534E0,1.041606808E1,-1.126105022E1,-1.262895584E1,1.986948042E1
4.076940836E0,8.987311363E0,-1.079470825E1,-1.242921257E1,1.875587420E1
4.081682138E0,7.702085972E0,-1.031578255E1,-1.244942665E1,1.790881687E1
4.086423440E0,6.654945850E0,-9.731847763E0,-1.256709385E1,1.723162827E1
4.091164743E0,5.733253956E0,-9.148971558E0,-1.269621277E1,1.666636434E1
4.095906045E0,4.877959251E0,-8.570556641E0,-1.273182869E1,1.610429723E1
4.100647347E0,4.037624359E0,-8.052916527E0,-1.280349541E1,1.565507489E1
4.105388649E0,3.178054333E0,-7.600041389E0,-1.282051086E1,1.523896838E1
4.110129951E0,2.318283081E0,-7.288189411E0,-1.271092129E1,1.483440802E1
4.114871253E0,1.523574233E0,-6.995618820E0,-1.234948921E1,1.427479754E1
4.119612555E0,8.075304031E-1,-6.787531853E0,-1.174430561E1,1.358864998E1
4.124353857E0,9.825944901E-2,-6.619502544E0,-1.098629761E1,1.282677683E1
4.129095159E0,-4.604129791E-1,-6.397344112E0,-1.012247372E1,1.198342463E1
4.133836409E0,-6.090753078E-1,-6.129558563E0,-9.256801605E0,1.111894046E1
4.138577711E0,-4.298393726E-1,-5.860113621E0,-8.512130737E0,1.034321339E1
4.143319013E0,-1.190986633E-1,-5.687627792E0,-7.941781998E0,9.769093903E0
4.148060315E0,3.111002445E-1,-5.569123745E0,-7.556253433E0,9.391958720E0
4.152801618E0,7.502551079E-1,-5.497238636E0,-7.359278679E0,9.216371196E0
4.157542920E0,1.264579296E0,-5.500403881E0,-7.273491859E0,9.206372113E0
4.162284222E0,1.711991906E0,-5.499354362E0,-7.228912830E0,9.242888910E0
4.167025524E0,2.112994194E0,-5.462879658E0,-7.105389595E0,9.208385305E0
4.171766826E0,2.480369806E0,-5.424246788E0,-7.024758816E0,9.215309220E0
4.176508128E0,2.587425709E0,-5.402524471E0,-6.948478222E0,9.174060827E0
4.181249430E0,2.453328609E0,-5.421824932E0,-6.838116169E0,9.065033900E0
4.185990732E0,2.194893360E0,-5.436977863E0,-6.712754726E0,8.912876144E0
4.190731982E0,2.000440121E0,-5.460335732E0,-6.572297096E0,8.775654739E0
4.195473284E0,1.890830517E0,-5.484980583E0,-6.380819321E0,8.624100373E0
4.200214586E0,1.738834739E0,-5.489802361E0,-6.121386528E0,8.404335145E0
4.204955888E0,1.618312716E0,-5.465758324E0,-5.851116657E0,8.168783033E0
4.209697190E0,1.562766075E0,-5.403740883E0,-5.641334534E0,7.966637224E0
4.214438493E0,1.515017152E0,-5.325703621E0,-5.501065254E0,7.805133885E0
4.219179795E0,1.392424941E0,-5.251191616E0,-5.388854504E0,7.652033290E0
4.223921097E0,1.146255136E0,-5.123446941E0,-5.231982231E0,7.411966504E0
4.228662399E0,9.670184851E-1,-4.945695877E0,-5.086897850E0,7.160416342E0
4.233403649E0,9.352320433E-1,-4.682781696E0,-4.902466774E0,6.843777017E0
4.238144951E0,9.444565773E-1,-4.411886215E0,-4.745030403E0,6.547675292E0
4.242886253E0,9.765361547E-1,-4.193068981E0,-4.650100708E0,6.337103987E0
4.247627555E0,1.060832143E0,-4.062223434E0,-4.641428947E0,6.258585043E0
4.252368857E0,1.216772795E0,-3.973590612E0,-4.711948395E0,6.282707702E0
4.257110159E0,1.427758455E0,-3.816745043E0,-4.866681576E0,6.347489779E0
4.261851461E0,1.614779592E0,-3.684527397E0,-5.027077675E0,6.438537506E0
4.266592763E0,1.863689184E0,-3.521466970E0,-5.200765610E0,6.551490664E0
4.271334065E0,2.028104544E0,-3.362776279E0,-5.405112743E0,6.681071480E0
4.276075368E0,2.009234190E0,-3.260640144E0,-5.556960583E0,6.748970818E0
4.280816618E0,1.882766485E0,-3.217172146E0,-5.632944107E0,6.754632897E0
4.285557920E0,1.676637411E0,-3.158084869E0,-5.643068314E0,6.680481498E0
4.290299222E0,1.392606854E0,-3.064371586E0,-5.587589264E0,6.523103621E0
4.295040524E0,9.155381918E-1,-2.983996391E0,-5.471467972E0,6.299159183E0
4.299781826E0,2.763962746E-1,-2.855082512E0,-5.325802803E0,6.049137670E0
4.304523128E0,-4.125192165E-1,-2.665726185E0,-5.248773575E0,5.901346646E0
4.309264430E0,-1.000747919E0,-2.401322365E0,-5.276446342E0,5.882918621E0
4.314005680E0,-1.447939634E0,-2.128150702E0,-5.380508423E0,5.964513851E0
4.318746982E0,-1.799362183E0,-1.782770395E0,-5.444354057E0,6.004745261E0
4.323488284E0,-2.086100578E0,-1.373585224E0,-5.289384842E0,5.849456727E0
4.328229586E0,-2.147968531E0,-7.776231766E-1,-4.837567329E0,5.349815350E0
4.332970888E0,-2.097144604E0,-5.368280411E-2,-4.027620792E0,4.541214219E0
4.337712190E0,-2.103081226E0,8.398680687E-1,-2.848494053E0,3.638989885E0
4.342453493E0,-2.120698690E0,1.747870445E0,-1.092930317E0,2.957517660E0
4.347194795E0,-2.446920872E0,2.595270157E0,1.367245197E0,3.819974917E0
4.351936045E0,-3.466471434E0,3.279037952E0,4.531282425E0,6.580352157E0
4.356677347E0,-5.102560997E0,3.821888447E0,8.054574966E0,1.027225087E1
4.361418649E0,-6.798216820E0,4.440736294E0,1.130153656E1,1.391619989E1
4.366159951E0,-8.222074509E0,5.310291767E0,1.426873302E1,1.730313411E1
4.370901253E0,-9.188860893E0,6.585847378E0,1.647647285E1,1.998205965E1
4.375642555E0,-9.619769096E0,8.141849518E0,1.801198196E1,2.198320189E1
4.380383805E0,-9.597370148E0,9.910888672E0,1.954580307E1,2.392433167E1
4.385125107E0,-9.359469414E0,1.166749382E1,2.134122849E1,2.606104589E1
4.389866409E0,-9.091714859E0,1.307841301E1,2.346744728E1,2.836239143E1
4.394607711E0,-8.974356651E0,1.384268951E1,2.607986450E1,3.085965753E1
4.399349013E0,-8.672031403E0,1.423166656E1,2.923871803E1,3.365482275E1
4.404090315E0,-8.757667542E0,1.426846695E1,3.290941238E1,3.692310000E1
4.408831565E0,-8.933718681E0,1.432922173E1,3.677346802E1,4.046511924E1
4.413572868E0,-8.917308807E0,1.433461571E1,4.018505096E1,4.358713027E1
4.418314170E0,-8.358305931E0,1.419831944E1,4.278583145E1,4.584845609E1
4.423055472E0,-7.578358173E0,1.343066692E1,4.406885529E1,4.668916719E1
4.427796774E0,-6.553534508E0,1.236100197E1,4.357201004E1,4.576312099E1
4.432538076E0,-5.189143181E0,1.163771057E1,4.168901062E1,4.359285630E1
4.437279326E0,-3.549705029E0,1.168227959E1,3.882676697E1,4.070127634E1
4.442020628E0,-1.791160226E0,1.221127701E1,3.525239563E1,3.735043425E1
4.446761930E0,-4.502871037E-1,1.273888016E1,3.118190002E1,3.368668454E1
4.451503232E0,4.398623109E-1,1.302536488E1,2.692194366E1,2.991061116E1
4.456244534E0,1.276904225E0,1.311051178E1,2.274303436E1,2.628234418E1
4.460985784E0,2.321164846E0,1.312002373E1,1.869541168E1,2.295737892E1
4.465727086E0,3.471158504E0,1.316997337E1,1.486984253E1,2.016455695E1
4.470468388E0,4.627819538E0,1.330906963E1,1.136888504E1,1.810523668E1
4.475209690E0,5.506770134E0,1.333141899E1,8.393392563E0,1.668832791E1
4.479950993E0,5.887255192E0,1.302730560E1,6.274020195E0,1.561197599E1
4.484692295E0,6.028870583E0,1.232179832E1,5.088759422E0,1.463111298E1
4.489433545E0,6.047749519E0,1.129701328E1,4.689113617E0,1.364498332E1
4.494174847E0,5.919013977E0,1.000831509E1,4.601968765E0,1.250516749E1
4.498916149E0,5.371439457E0,8.535435677E0,4.206274986E0,1.092697457E1
4.503657451E0,4.616759300E0,7.066021919E0,3.299907684E0,9.062699538E0
4.508398701E0,4.159795761E0,5.691906452E0,2.271453857E0,7.406834848E0
4.513140003E0,4.031527519E0,4.266018391E0,1.243400574E0,5.999847668E0
4.517881305E0,4.069224358E0,2.672704697E0,2.471017838E-1,4.874730409E0
4.522622607E0,4.445425034E0,9.833660126E-1,-8.680958748E-1,4.634911314E0
4.527363909E0,5.426812172E0,-5.249590874E-1,-1.924943447E0,5.781978871E0
4.532105211E0,6.788075447E0,-1.862635136E0,-2.583555222E0,7.498142137E0
4.536846461E0,8.223912239E0,-3.172123909E0,-2.671221256E0,9.210348832E0
4.541587763E0,9.291447639E0,-4.556269646E0,-2.248780727E0,1.058997673E1
4.546329065E0,9.967957497E0,-5.831926823E0,-1.524315357E0,1.164882331E1
4.551070368E0,1.034159088E1,-6.880983829E0,-7.197017670E-1,1.244244393E1
4.555811618E0,1.055781651E1,-7.783587456E0,-1.356792450E-1,1.311755053E1
4.560552920E0,1.068563557E1,-8.465867043E0,9.904575348E-2,1.363317726E1
4.565294222E0,1.054963779E1,-9.123268127E0,-6.573104858E-2,1.394751589E1
4.570035524E0,1.032001114E1,-9.806514740E0,-7.644891739E-1,1.425674595E1
4.574776826E0,1.004396343E1,-1.043830872E1,-1.888348579E0,1.460840000E1
4.579518076E0,9.772482872E0,-1.109825993E1,-3.427196026E0,1.517954108E1
4.584259378E0,9.608299255E0,-1.166402149E1,-5.285537243E0,1.600955077E1
4.589000680E0,9.526411057E0,-1.221340942E1,-7.569605350E0,1.724003488E1
4.593741982E0,9.531976700E0,-1.265835190E1,-1.015216732E1,1.881911140E1
4.598483284E0,9.574586868E0,-1.304443169E1,-1.281132317E1,2.063879631E1
4.603224534E0,9.677368164E0,-1.332637215E1,-1.558202267E1,2.267251816E1
4.607965836E0,9.647929192E0,-1.356238174E1,-1.809057236E1,2.458230145E1
4.612707138E0,9.571173668E0,-1.366546917E1,-2.038958168E1,2.634553955E1
4.617448440E0,9.319468498E0,-1.367422485E1,-2.206007385E1,2.757687032E1
4.622189690E0,8.974229813E0,-1.351829720E1,-2.302230453E1,2.816571792E1
4.626930993E0,8.553020477E0,-1.326455021E1,-2.346119499E1,2.827596368E1
4.631672295E0,8.095335960E0,-1.295170593E1,-2.339330673E1,2.793793032E1
4.636413597E0,7.574100971E0,-1.264778328E1,-2.290118980E1,2.723596743E1
4.641154847E0,7.041563988E0,-1.233966541E1,-2.206905556E1,2.624679369E1
4.645896149E0,6.464495659E0,-1.198334503E1,-2.090376282E1,2.494709527E1
4.650637451E0,5.871827126E0,-1.162604332E1,-1.953589249E1,2.347965784E1
4.655378753E0,5.309242725E0,-1.118579102E1,-1.805498505E1,2.189274912E1
4.660120003E0,4.812895298E0,-1.080054283E1,-1.653130341E1,2.032485372E1
4.664861305E0,4.390208244E0,-1.045720577E1,-1.502560234E1,1.882540323E1
4.669602607E0,4.060644150E0,-1.013765144E1,-1.365851402E1,1.748759026E1
4.674343909E0,3.867380381E0,-9.821048737E0,-1.244573879E1,1.631888610E1
4.679085159E0,3.712620020E0,-9.548426628E0,-1.141276360E1,1.533646541E1
4.683826461E0,3.508406639E0,-9.358330727E0,-1.047256279E1,1.447625098E1
4.688567763E0,3.190989971E0,-9.146018028E0,-9.489984512E0,1.356067361E1
4.693309065E0,2.842435360E0,-8.881175041E0,-8.444685936E0,1.258043836E1
4.698050315E0,2.575801373E0,-8.521534920E0,-7.385734081E0,1.156721133E1
4.702791618E0,2.377323627E0,-8.063062668E0,-6.436327934E0,1.058730204E1
4.707532920E0,2.269124031E0,-7.565963745E0,-5.564452171E0,9.662083586E0
4.712274222E0,2.229917526E0,-7.097391605E0,-4.786341667E0,8.846161107E0
4.717015472E0,2.053623438E0,-6.712578773E0,-4.034897804E0,8.096695826E0
4.721756774E0,1.710717678E0,-6.447917938E0,-3.281492710E0,7.434406171E0
4.726498076E0,1.285987854E0,-6.234762669E0,-2.500133038E0,6.839349055E0
4.731239378E0,9.356379509E-1,-6.009401798E0,-1.791761398E0,6.340247413E0
4.735980628E0,6.291327477E-1,-5.791667461E0,-1.288601398E0,5.966549552E0
4.740721930E0,4.054408073E-1,-5.572279453E0,-1.034564495E0,5.681989462E0
4.745463232E0,2.965550423E-1,-5.391891003E0,-1.025766373E0,5.496601689E0
4.750204482E0,3.180441856E-1,-5.192597389E0,-1.306260109E0,5.363817225E0
4.754945784E0,2.800316811E-1,-5.071691036E0,-1.860279083E0,5.409353564E0
4.759687086E0,2.203893661E-1,-5.013863564E0,-2.643069267E0,5.672143727E0
4.764428388E0,1.008820534E-1,-4.989492416E0,-3.535328388E0,6.115861229E0
4.769169638E0,-7.549142838E-2,-4.966688156E0,-4.364714622E0,6.612444626E0
4.773910940E0,-2.788748741E-1,-5.002514362E0,-4.998916626E0,7.077576462E0
4.778652243E0,-5.676722527E-1,-5.054033279E0,-5.353032589E0,7.383797267E0
4.783393545E0,-7.921080589E-1,-5.043012142E0,-5.442301273E0,7.461772564E0
4.788134795E0,-8.380446434E-1,-4.920108318E0,-5.348677635E0,7.315609143E0
4.792876097E0,-6.127834320E-1,-4.688368320E0,-5.137510300E0,6.982142445E0
4.797617399E0,-2.941460609E-1,-4.498949051E0,-4.881627083E0,6.645099506E0
4.802358649E0,1.001744270E-1,-4.395163536E0,-4.658901691E0,6.405689845E0
4.807099951E0,6.045074463E-1,-4.408247948E0,-4.456745148E0,6.297670723E0
4.811841253E0,1.205385923E0,-4.495103836E0,-4.217291832E0,6.280482793E0
4.816582555E0,1.850881577E0,-4.557691574E0,-3.937907457E0,6.301224503E0
4.821323805E0,2.558387280E0,-4.555410862E0,-3.611303329E0,6.351269584E0
4.826065107E0,3.244439840E0,-4.510009766E0,-3.342723370E0,6.483855141E0
4.830806409E0,3.866349697E0,-4.435858727E0,-3.146522999E0,6.672788743E0
4.835547659E0,4.367084026E0,-4.366412640E0,-3.022726059E0,6.875598524E0
4.840288961E0,4.732357025E0,-4.328085899E0,-2.969028473E0,7.067012144E0
4.845030263E0,4.969564915E0,-4.311555862E0,-2.904040337E0,7.191629834E0
4.849771513E0,5.002553463E0,-4.291025162E0,-2.798856258E0,7.160449319E0
4.854512815E0,4.898819447E0,-4.240570068E0,-2.713134289E0,7.024383542E0
4.859254118E0,4.723161697E0,-4.141405106E0,-2.787886143E0,6.872539692E0
4.863995420E0,4.437273979E0,-4.070003510E0,-3.118827343E0,6.780959588E0
4.868736670E0,3.914242029E0,-4.088401794E0,-3.502714634E0,6.656224884E0
4.873477972E0,3.266424179E0,-4.148820400E0,-3.839208841E0,6.528534457E0
4.878219274E0,2.651533604E0,-4.050258636E0,-4.185996056E0,6.399827220E0
4.882960524E0,2.241531849E0,-3.799239874E0,-4.777987480E0,6.502911118E0
4.887701826E0,1.961712241E0,-3.451652527E0,-5.704456329E0,6.950039000E0
4.892443128E0,1.696601033E0,-3.110556602E0,-6.650860786E0,7.535779100E0
4.897184378E0,1.479142427E0,-2.745079756E0,-7.444040298E0,8.070753444E0
4.901925680E0,1.392799854E0,-2.348813057E0,-7.719315052E0,8.188079084E0
4.906666982E0,1.731786966E0,-1.777620792E0,-7.063908100E0,7.487177000E0
4.911408232E0,2.295910358E0,-1.156080008E0,-5.511893272E0,6.081833014E0
4.916149534E0,2.536280632E0,-6.020681858E-1,-3.297734737E0,4.203600831E0
4.920890836E0,2.351391315E0,-5.511379242E-2,-5.810627937E-1,2.422748980E0
4.925632086E0,1.864474535E0,6.224179268E-1,2.964877129E0,3.557269424E0
4.930373388E0,1.061533928E0,1.552201748E0,7.284220695E0,7.523035005E0
4.935114690E0,-4.401338100E-1,2.346010208E0,1.172813606E1,1.196856955E1
4.939855940E0,-2.829128504E0,2.741384983E0,1.525356102E1,1.575405610E1
4.944597243E0,-5.740571022E0,3.099242210E0,1.792215538E1,1.907257485E1
4.949338545E0,-8.296592712E0,3.592607975E0,1.836346054E1,2.046843828E1
4.954079795E0,-9.877589226E0,4.566745281E0,1.663167953E1,1.987547976E1
4.958821097E0,-1.012694550E1,6.146249294E0,1.314937973E1,1.769851951E1
4.963562399E0,-9.422472954E0,8.395481110E0,8.930173874E0,1.546011336E1
4.968303649E0,-8.569007874E0,1.102067184E1,5.802685261E0,1.511801112E1
4.973044951E0,-8.810384750E0,1.330185509E1,5.610741615E0,1.691279544E1
4.977786253E0,-1.047533512E1,1.477293396E1,9.435289383E0,2.042050218E1
4.982527503E0,-1.305101395E1,1.561958122E1,1.664256859E1,2.629211615E1
4.987268805E0,-1.540937805E1,1.609697723E1,2.520961952E1,3.364649349E1
4.992010107E0,-1.720960808E1,1.629564285E1,3.381155014E1,4.129091315E1
4.996751357E0,-1.809857368E1,1.606876564E1,4.078828812E1,4.742834644E1
5.001492659E0,-1.796740723E1,1.556977654E1,4.494975281E1,5.085003384E1
5.006233961E0,-1.689258003E1,1.507359886E1,4.581473160E1,5.110344679E1
5.010975211E0,-1.494233227E1,1.472983456E1,4.380978012E1,4.857507750E1
5.015716513E0,-1.234497356E1,1.458786678E1,4.000406265E1,4.433428987E1
5.020457815E0,-9.523174286E0,1.462546730E1,3.547084427E1,3.953196094E1
5.025199065E0,-6.766800880E0,1.474690628E1,3.124263000E1,3.520458448E1
5.029940368E0,-4.200816154E0,1.482594109E1,2.789816284E1,3.187103505E1
5.034681670E0,-1.775712252E0,1.497185040E1,2.559379959E1,2.970441105E1
5.039422920E0,2.688271999E-1,1.504336929E1,2.439566422E1,2.866223404E1
5.044164222E0,1.586460114E0,1.475393105E1,2.417865372E1,2.836904356E1
5.048905472E0,2.122399807E0,1.395478725E1,2.445367432E1,2.823513513E1
5.053646774E0,2.022805929E0,1.275507355E1,2.477697563E1,2.794069016E1
5.058388076E0,1.796358705E0,1.153236008E1,2.483864975E1,2.744413881E1
5.063129326E0,1.718747377E0,1.044555473E1,2.409145355E1,2.631466968E1
5.067870628E0,1.624943972E0,9.401872635E0,2.235116959E1,2.430247794E1
5.072611930E0,1.357141018E0,8.400600433E0,1.990184402E1,2.164475260E1
5.077353180E0,8.121838570E-1,7.502935886E0,1.717285919E1,1.875795251E1
5.082094482E0,1.759366989E-1,6.762477398E0,1.439687920E1,1.590698541E1
5.086835784E0,-5.740947723E-1,6.126703739E0,1.177305698E1,1.328423706E1
5.091577034E0,-1.373721600E0,5.415811539E0,9.409912109E0,1.094370009E1
5.096318336E0,-1.859593391E0,4.648189068E0,7.217728615E0,8.784039819E0
5.101059586E0,-2.218317986E0,3.732135773E0,5.083195686E0,6.684957030E0
5.105800888E0,-2.272303581E0,2.750768185E0,2.972231865E0,4.643732489E0
5.110542190E0,-1.970065594E0,1.823298454E0,9.610652924E-1,2.851179088E0
5.115283440E0,-1.321324348E0,9.233379364E-1,-9.072799683E-1,1.849758881E0
5.120024743E0,-3.971471786E-1,9.414148331E-2,-2.615803719E0,2.647454928E0
5.124766045E0,6.071908474E-1,-7.592754364E-1,-4.291205406E0,4.399957244E0
5.129507295E0,1.640097857E0,-1.671943426E0,-5.918976784E0,6.365500920E0
5.134248597E0,2.657010078E0,-2.717334509E0,-7.388955593E0,8.309047728E0
5.138989847E0,3.714352369E0,-3.789598227E0,-8.674477577E0,1.016877719E1
5.143731149E0,4.849933147E0,-4.751792431E0,-9.861088753E0,1.197257091E1
5.148472451E0,6.011377811E0,-5.567150593E0,-1.098872566E1,1.370700261E1
5.153213701E0,7.069878578E0,-6.301678658E0,-1.203283787E1,1.531285487E1
5.157955003E0,8.025303841E0,-6.940340996E0,-1.286147881E1,1.667307626E1
5.162696253E0,8.752739906E0,-7.492421150E0,-1.342179203E1,1.768873460E1
5.167437555E0,9.268267632E0,-8.067909241E0,-1.383787918E1,1.850618396E1
5.172178857E0,9.613635063E0,-8.597558975E0,-1.411667633E1,1.912120682E1
5.176920107E0,9.851934433E0,-8.997911453E0,-1.420773125E1,1.949057849E1
5.181661409E0,9.899942398E0,-9.292938232E0,-1.439097118E1,1.978554048E1
5.186402711E0,9.721175194E0,-9.580885887E0,-1.446341515E1,1.988680465E1
5.191143961E0,9.563274384E0,-9.849615097E0,-1.462923431E1,2.006204454E1
5.195885263E0,9.386741638E0,-1.007955074E1,-1.481273460E1,2.022684771E1
5.200626513E0,9.192571640E0,-1.028463554E1,-1.499343300E1,2.037351552E1
5.205367815E0,8.969962120E0,-1.039497566E1,-1.512222862E1,2.042541402E1
5.210109065E0,8.722446442E0,-1.042706108E1,-1.528626347E1,2.045664991E1
5.214850368E0,8.580429077E0,-1.033717728E1,-1.552501678E1,2.053063914E1
5.219591670E0,8.531397820E0,-1.016526413E1,-1.572938156E1,2.057986365E1
5.224332920E0,8.429341316E0,-9.977546692E0,-1.587863731E1,2.056055340E1
5.229074222E0,8.303043365E0,-9.783035278E0,-1.592077255E1,2.044796584E1
5.233815472E0,8.090644836E0,-9.650606155E0,-1.581315994E1,2.021506271E1
5.238556774E0,7.766066551E0,-9.553876877E0,-1.555117607E1,1.983500517E1
5.243298076E0,7.406150818E0,-9.419015884E0,-1.512030411E1,1.929229189E1
5.248039326E0,7.011267662E0,-9.229937553E0,-1.453441334E1,1.859028759E1
5.252780628E0,6.601140976E0,-8.958900452E0,-1.377351093E1,1.770724606E1
5.257521878E0,6.181077957E0,-8.645232201E0,-1.291800213E1,1.672783738E1
5.262263180E0,5.756297588E0,-8.318675995E0,-1.212712097E1,1.579247907E1
5.267004430E0,5.331588745E0,-8.018288612E0,-1.138816071E1,1.491338309E1
5.271745732E0,4.830144405E0,-7.744711876E0,-1.075803852E1,1.410837517E1
5.276487034E0,4.339738369E0,-7.517696857E0,-1.021263409E1,1.340324551E1
5.281228284E0,3.902645588E0,-7.256380081E0,-9.759064674E0,1.277204125E1
5.285969586E0,3.573042393E0,-6.994556427E0,-9.418965340E0,1.226406783E1
5.290710836E0,3.371760368E0,-6.677201271E0,-9.151895523E0,1.181993978E1
5.295452138E0,3.202584743E0,-6.399925709E0,-8.924606323E0,1.143958898E1
5.300193388E0,3.050551414E0,-6.105167866E0,-8.778136253E0,1.111911034E1
5.304934690E0,2.977233171E0,-5.809583664E0,-8.629117012E0,1.082020518E1
5.309675993E0,2.924749851E0,-5.524756908E0,-8.544992447E0,1.058744523E1
5.314417243E0,2.870928764E0,-5.236151218E0,-8.485519409E0,1.037610482E1
5.319158545E0,2.779429913E0,-5.017616272E0,-8.422418594E0,1.019013438E1
5.323899795E0,2.625913620E0,-4.818674564E0,-8.313012123E0,9.960984763E0
5.328641097E0,2.364727020E0,-4.663068771E0,-8.193422318E0,9.719481134E0
5.333382399E0,2.110349894E0,-4.493580341E0,-8.030214310E0,9.440878286E0
5.338123649E0,1.841162920E0,-4.319960117E0,-7.830454826E0,9.130605626E0
5.342864951E0,1.559714794E0,-4.121213436E0,-7.481285095E0,8.682553605E0
5.347606201E0,1.287800074E0,-3.938624859E0,-7.089861393E0,8.212023464E0
5.352347503E0,9.949662685E-1,-3.768281937E0,-6.643282413E0,7.702149561E0
5.357088753E0,7.684841156E-1,-3.615959167E0,-6.073348045E0,7.109942687E0
5.361830055E0,5.740149021E-1,-3.420647860E0,-5.397743225E0,6.416070200E0
5.366571305E0,5.350644588E-1,-3.238542318E0,-4.705989361E0,5.737663827E0
5.371312607E0,6.025772095E-1,-3.111404419E0,-4.068601608E0,5.157272128E0
5.376053909E0,8.017740250E-1,-3.028230429E0,-3.426956177E0,4.642957005E0
5.380795159E0,1.128665209E0,-2.961045027E0,-2.864022255E0,4.271334251E0
5.385536461E0,1.542595625E0,-2.982048273E0,-2.470436096E0,4.168365108E0
5.390277711E0,2.062369108E0,-3.134086609E0,-2.451958656E0,4.481960114E0
5.395019013E0,2.805290699E0,-3.383032084E0,-2.662493229E0,5.138427014E0
5.399760263E0,3.663841009E0,-3.586658001E0,-3.023252487E0,5.952134252E0
5.404501565E0,4.360568523E0,-3.684056997E0,-3.503571510E0,6.697898710E0
5.409242815E0,4.940738201E0,-3.829566240E0,-4.132820606E0,7.493775932E0
5.413984118E0,5.219740868E0,-4.019864559E0,-4.717916489E0,8.103316716E0
5.418725368E0,5.251959324E0,-4.135025501E0,-5.027671814E0,8.364149479E0
5.423466670E0,5.108136177E0,-4.189361572E0,-5.264057159E0,8.447135808E0
5.428207920E0,4.739331245E0,-4.185196400E0,-5.659907341E0,8.485969636E0
5.432949222E0,4.111271381E0,-4.165298939E0,-6.277956009E0,8.582831658E0
5.437690524E0,3.154471636E0,-4.110339165E0,-6.941353798E0,8.661868846E0
5.442431774E0,1.837766171E0,-3.848285437E0,-7.557029724E0,8.677291257E0
5.447173076E0,3.952090740E-1,-3.384151936E0,-8.323926926E0,8.994244493E0
5.451914326E0,-9.729299545E-1,-2.794437408E0,-9.091763496E0,9.561152472E0
5.456655628E0,-2.346768379E0,-2.284563780E0,-9.973720551E0,1.049769761E1
5.461396878E0,-3.603390694E0,-1.745808244E0,-1.114548492E1,1.184289260E1
5.466138180E0,-4.643805981E0,-1.087744951E0,-1.248160648E1,1.336183458E1
5.470879430E0,-5.132096767E0,-1.353299618E-1,-1.377815819E1,1.470354972E1
5.475620732E0,-4.978428364E0,9.592921734E-1,-1.465438843E1,1.550664666E1
5.480361982E0,-4.584748268E0,1.960561037E0,-1.479399490E1,1.561172641E1
5.485103284E0,-4.227516174E0,2.736752748E0,-1.379608345E1,1.468651174E1
5.489844534E0,-4.292795181E0,3.132160664E0,-1.147648048E1,1.264705994E1
5.494585836E0,-4.739533424E0,3.461658478E0,-7.548901081E0,9.562016734E0
5.499327086E0,-5.486761093E0,4.138661861E0,-2.319124699E0,7.253372227E0
5.504068388E0,-6.541489601E0,5.281896114E0,3.328694344E0,9.042661046E0
5.508809638E0,-8.313330650E0,6.704220772E0,8.969562531E0,1.394672344E1
5.513550940E0,-1.108817673E1,8.059153557E0,1.411813831E1,1.967789238E1
5.518292190E0,-1.470594978E1,9.327785492E0,1.814219666E1,2.514779992E1
5.523033493E0,-1.797891426E1,1.068275452E1,2.134542847E1,2.988293691E1
5.527774795E0,-1.998730278E1,1.300701332E1,2.386241150E1,3.373557989E1
5.532516045E0,-2.104178429E1,1.599174881E1,2.706136322E1,3.782605048E1
5.537257347E0,-2.152382278E1,1.914781380E1,3.264527893E1,4.353880978E1
5.541998597E0,-2.157507515E1,2.160069275E1,4.030175018E1,5.055991360E1
5.546739899E0,-2.093501282E1,2.338566208E1,4.837721252E1,5.766731001E1
5.551481149E0,-2.042445755E1,2.411885643E1,5.553248596E1,6.389628079E1
5.556222451E0,-1.967321014E1,2.358011436E1,6.137766266E1,6.863143933E1
5.560963701E0,-1.826814079E1,2.254058838E1,6.542175293E1,7.156681388E1
5.565705003E0,-1.591723061E1,2.170397949E1,6.731651306E1,7.249781988E1
5.570446253E0,-1.300042534E1,2.119333267E1,6.703964996E1,7.150162988E1
5.575187555E0,-1.028098297E1,2.045086098E1,6.479203033E1,6.871639921E1
5.579928805E0,-8.230031013E0,1.900035858E1,6.119296646E1,6.460128622E1
5.584670107E0,-7.053395271E0,1.724851227E1,5.721082306E1,6.016925989E1
5.589411357E0,-6.822091103E0,1.543264771E1,5.338897705E1,5.599187810E1
5.594152659E0,-7.352771759E0,1.374080467E1,4.959164810E1,5.198273297E1
5.598893909E0,-8.688388824E0,1.201072121E1,4.579144669E1,4.813109300E1
5.603635211E0,-1.049256039E1,1.048790836E1,4.213087463E1,4.466654948E1
5.608376461E0,-1.246664238E1,9.047209740E0,3.782344055E1,4.083970900E1
5.613117711E0,-1.429109764E1,7.509447575E0,3.260626984E1,3.638400895E1
5.617859013E0,-1.584823036E1,5.861213684E0,2.670579147E1,3.160252410E1
5.622600263E0,-1.712668037E1,4.220101833E0,2.056261444E1,2.709157716E1
5.627341565E0,-1.777064896E1,2.664813995E0,1.449952221E1,2.308968043E1
5.632082868E0,-1.776577377E1,1.082171440E0,8.617058754E0,1.977492135E1
5.636824118E0,-1.706522751E1,-6.201200485E-1,3.268021107E0,1.738638838E1
5.641565368E0,-1.564208794E1,-2.419969082E0,-1.559552670E0,1.590482222E1
5.646306670E0,-1.357965755E1,-4.185390472E0,-5.931035995E0,1.539810965E1
5.651047920E0,-1.142277145E1,-5.918800354E0,-9.613430977E0,1.606019802E1
5.655789222E0,-9.798632622E0,-7.896424770E0,-1.239857101E1,1.766610564E1
5.660530472E0,-7.922073364E0,-1.014586067E1,-1.489064407E1,1.968321661E1
5.665271774E0,-5.883359909E0,-1.199342918E1,-1.715317535E1,2.174138202E1
5.670013024E0,-3.582423687E0,-1.335098457E1,-1.912633133E1,2.359870968E1
5.674754326E0,-1.035897732E0,-1.462767029E1,-2.039232445E1,2.511749825E1
5.679495576E0,1.597439766E0,-1.588120651E1,-2.118235397E1,2.652275728E1
5.684236878E0,4.016738415E0,-1.701212502E1,-2.124924660E1,2.751503345E1
5.688978128E0,5.982141018E0,-1.791654396E1,-2.095397758E1,2.821095063E1
5.693719430E0,7.433371067E0,-1.860356331E1,-2.022447395E1,2.846711998E1
5.698460680E0,8.475530624E0,-1.909907913E1,-1.937639999E1,2.849656681E1
5.703201982E0,9.197704315E0,-1.941462326E1,-1.839029121E1,2.827946555E1
5.707943232E0,9.420231819E0,-1.960432816E1,-1.767506409E1,2.802638650E1
5.712684482E0,9.099921227E0,-1.967859268E1,-1.751287651E1,2.787035019E1
5.717425784E0,8.557615280E0,-1.964460373E1,-1.773428726E1,2.781453181E1
5.722167086E0,8.042386055E0,-1.946334457E1,-1.834066772E1,2.792636475E1
5.726908336E0,7.767391682E0,-1.901371384E1,-1.944924545E1,2.828651333E1
5.731649586E0,7.878694057E0,-1.839410591E1,-2.102985191E1,2.902880679E1
5.736390888E0,8.302696228E0,-1.777433777E1,-2.274424744E1,3.003602236E1
5.741132138E0,8.747053146E0,-1.720252991E1,-2.405300140E1,3.083804226E1
5.745873440E0,8.922581673E0,-1.664880753E1,-2.470764542E1,3.110085204E1
5.750614690E0,8.755162239E0,-1.607951355E1,-2.475040054E1,3.078613241E1
5.755355993E0,8.110979080E0,-1.566028500E1,-2.411927605E1,2.987929023E1
5.760097243E0,6.734072685E0,-1.538778496E1,-2.269821548E1,2.823722095E1
5.764838545E0,4.994859695E0,-1.509453964E1,-2.069043541E1,2.609382816E1
5.769579795E0,3.215186119E0,-1.466138840E1,-1.849939156E1,2.382270387E1
5.774321045E0,1.661806345E0,-1.409811974E1,-1.633956528E1,2.164486022E1
5.779062347E0,4.865561724E-1,-1.353340530E1,-1.450267220E1,1.984231077E1
5.783803597E0,-3.500345945E-1,-1.296816826E1,-1.318567753E1,1.849751346E1
5.788544899E0,-7.270046473E-1,-1.242621040E1,-1.253413582E1,1.766476157E1
5.793286149E0,-5.425016880E-1,-1.187038994E1,-1.256584358E1,1.729453354E1
5.798027451E0,-1.630084515E-1,-1.137068748E1,-1.303849983E1,1.730091279E1
5.802768701E0,2.394611835E-1,-1.084392738E1,-1.349717617E1,1.731536506E1
5.807509951E0,5.744244456E-1,-1.039873028E1,-1.378573227E1,1.727744104E1
5.812251253E0,8.828995824E-1,-9.981301308E0,-1.387444496E1,1.711450001E1
5.816992503E0,1.093394637E0,-9.614932060E0,-1.365874290E1,1.673928577E1
5.821733805E0,1.170126915E0,-9.270697594E0,-1.309097862E1,1.608380403E1
5.826475055E0,1.158579350E0,-9.003639221E0,-1.238863468E1,1.535858374E1
5.831216357E0,1.137615085E0,-8.823432922E0,-1.157981586E1,1.460271454E1
5.835957607E0,9.421185255E-1,-8.766217232E0,-1.066367722E1,1.383647945E1
5.840698909E0,5.122190714E-1,-8.736999512E0,-9.543285370E0,1.294881556E1
5.845440159E0,3.173637390E-2,-8.624504089E0,-8.250706673E0,1.193554517E1
5.850181409E0,-4.638496637E-1,-8.496946335E0,-6.983027935E0,1.100799403E1
5.854922711E0,-1.075369716E0,-8.346004486E0,-5.772168159E0,1.020441748E1
5.859663961E0,-1.748224854E0,-8.173050880E0,-4.673965931E0,9.576064346E0
5.864405263E0,-2.291489601E0,-7.993670464E0,-3.703804493E0,9.103178554E0
5.869146513E0,-2.590814114E0,-7.799074173E0,-3.011476040E0,8.752534699E0
5.873887815E0,-2.615541935E0,-7.744948387E0,-2.701701641E0,8.609557299E0
5.878629065E0,-2.526295185E0,-7.826159954E0,-2.690567493E0,8.652751032E0
5.883370315E0,-2.315959454E0,-7.960988045E0,-2.815362930E0,8.755984654E0
5.888111618E0,-1.938729048E0,-8.070158005E0,-2.913516998E0,8.796289095E0
5.892852868E0,-1.350869775E0,-8.198992729E0,-3.016120434E0,8.839983789E0
5.897594170E0,-6.303608418E-1,-8.299519539E0,-3.022680759E0,8.855279687E0
5.902335420E0,3.259998560E-2,-8.400795937E0,-2.908991337E0,8.890256786E0
5.907076722E0,5.271886587E-1,-8.608783722E0,-2.569277763E0,8.999459610E0
5.911817972E0,1.058495998E0,-8.714042664E0,-2.096180439E0,9.024905858E0
5.916559222E0,1.609152317E0,-8.837436676E0,-1.587069988E0,9.121866549E0
5.921300524E0,2.147487879E0,-8.917960167E0,-1.144095898E0,9.243953329E0
5.926041774E0,2.708865643E0,-9.052429199E0,-8.646526337E-1,9.488522101E0
5.930783076E0,3.381837368E0,-9.169998169E0,-7.768182755E-1,9.804546753E0
5.935524326E0,4.104246140E0,-9.271109581E0,-8.827633858E-1,1.017730713E1
5.940265576E0,4.720153809E0,-9.308430672E0,-9.766044617E-1,1.048238951E1
5.945006878E0,5.199398041E0,-9.364006996E0,-1.031895638E0,1.076025909E1
5.949748128E0,5.426980495E0,-9.416290283E0,-1.376535892E0,1.095506691E1
5.954489378E0,5.360577583E0,-9.431226730E0,-2.017963886E0,1.103431049E1
5.959230680E0,5.284389019E0,-9.410160065E0,-2.966318130E0,1.119262806E1
5.963971930E0,5.219424248E0,-9.296506882E0,-4.117265701E0,1.142888037E1
5.968713232E0,5.134781837E0,-9.217519760E0,-5.359625340E0,1.183445135E1
5.973454482E0,4.660241127E0,-9.157125473E0,-6.462595463E0,1.213820145E1
5.978195732E0,3.918848515E0,-9.033067703E0,-7.185594082E0,1.218960410E1
5.982937034E0,3.322977543E0,-8.717859268E0,-7.936280727E0,1.224858366E1
5.987678284E0,2.690088272E0,-8.394777298E0,-8.729789734E0,1.240637294E1
5.992419586E0,1.936786890E0,-8.079622269E0,-9.392181396E0,1.253971734E1
5.997160836E0,1.166730165E0,-7.747747421E0,-9.950395584E0,1.266488143E1
6.001902086E0,2.779890895E-1,-7.322642803E0,-1.014386559E1,1.251384771E1
6.006643388E0,-4.343335629E-1,-6.680410385E0,-1.014250183E1,1.215264876E1
6.011384638E0,-9.889247417E-1,-5.900004864E0,-1.025506592E1,1.187242210E1
6.016125940E0,-1.403336525E0,-5.248598576E0,-1.069482136E1,1.199568023E1
6.020867190E0,-1.595563412E0,-4.693579674E0,-1.142420387E1,1.245343113E1
6.025608440E0,-1.445598006E0,-4.113513947E0,-1.218840313E1,1.294480287E1
6.030349743E0,-9.570772052E-1,-3.380017996E0,-1.251039124E1,1.299424516E1
6.035090993E0,-1.901267171E-1,-2.436916113E0,-1.221941185E1,1.246149005E1
6.039832243E0,4.920339584E-1,-1.338719368E0,-1.125194645E1,1.134198245E1
6.044573545E0,8.489164710E-1,-5.944013596E-2,-9.486453056E0,9.524546388E0
6.049314795E0,6.355413198E-1,1.388065815E0,-7.056963921E0,7.220206316E0
6.054056097E0,-1.389800310E-1,3.092925072E0,-3.915007114E0,4.991270545E0
6.058797347E0,-1.325552940E0,5.136094093E0,2.515645027E-1,5.310351950E0
6.063538597E0,-2.982745647E0,7.379415989E0,5.246060848E0,9.532770130E0
6.068279899E0,-5.200035095E0,9.747949600E0,1.115256310E1,1.569848878E1
6.073021149E0,-7.760220051E0,1.205134296E1,1.755802727E1,2.266583782E1
6.077762451E0,-1.032275772E1,1.432220840E1,2.406148911E1,2.984359627E1
6.082503701E0,-1.272855473E1,1.653314781E1,2.952457428E1,3.615330647E1
6.087244951E0,-1.531608868E1,1.846603203E1,3.354254532E1,4.123929264E1
6.091986253E0,-1.843952751E1,1.988057327E1,3.651550293E1,4.548225283E1
6.096727503E0,-2.163201523E1,2.061276245E1,3.874188232E1,4.892610249E1
6.101468753E0,-2.297050285E1,2.123397446E1,3.991622162E1,5.071321742E1
6.106210055E0,-2.224185181E1,2.194969177E1,3.950278473E1,5.036823346E1
6.110951305E0,-1.975308228E1,2.307062531E1,3.780008698E1,4.849004626E1
6.115692607E0,-1.682386208E1,2.420095825E1,3.536112976E1,4.603409838E1
6.120433857E0,-1.451135540E1,2.469625473E1,3.314314651E1,4.380585114E1
6.125175107E0,-1.306622601E1,2.471877670E1,3.236543274E1,4.276991256E1
6.129916409E0,-1.261427498E1,2.445113945E1,3.297671127E1,4.294696311E1
6.134657659E0,-1.260365009E1,2.392473412E1,3.415567780E1,4.356438022E1
6.139398909E0,-1.240588760E1,2.296028328E1,3.513288879E1,4.376528911E1
6.144140211E0,-1.123465347E1,2.186128616E1,3.513423920E1,4.287829329E1
6.148881461E0,-9.304401398E0,2.065883064E1,3.375054550E1,4.065044269E1
6.153622711E0,-6.985325336E0,1.934579086E1,3.120503235E1,3.737390049E1
6.158364013E0,-4.443598747E0,1.797536659E1,2.829664421E1,3.381655582E1
6.163105263E0,-1.790744305E0,1.669019318E1,2.595619011E1,3.091105172E1
6.167846513E0,6.579508781E-1,1.542571354E1,2.434702110E1,2.882989723E1
6.172587815E0,2.758173704E0,1.401557350E1,2.349700546E1,2.749823792E1
6.177329065E0,5.046448708E0,1.260114479E1,2.337203598E1,2.702790337E1
6.182070315E0,7.149738312E0,1.114415264E1,2.357872391E1,2.704195106E1
6.186811618E0,8.802076340E0,9.475193977E0,2.361794662E1,2.692699856E1
6.191552868E0,9.982130051E0,7.624459267E0,2.323412132E1,2.641211262E1
6.196294118E0,1.054831982E1,5.811536789E0,2.250391769E1,2.552385791E1
6.201035420E0,1.052648544E1,4.136651039E0,2.141995811E1,2.422258003E1
6.205776670E0,1.027066422E1,2.645376682E0,1.983129883E1,2.248921907E1
6.210517920E0,9.877161980E0,1.338824272E0,1.764648819E1,2.026695154E1
6.215259222E0,9.183536530E0,8.426570892E-2,1.507053089E1,1.764838081E1
6.220000472E0,7.983690739E0,-1.335508823E0,1.255253315E1,1.493616383E1
6.224741722E0,6.535776615E0,-2.755821705E0,1.030987358E1,1.251416887E1
6.229483024E0,5.347128391E0,-4.117674351E0,8.232554436E0,1.064527955E1
6.234224274E0,4.488156796E0,-5.357130051E0,6.074675560E0,9.259809769E0
6.238965524E0,3.966291904E0,-6.505030632E0,3.736265182E0,8.485668654E0
6.243706826E0,3.720746040E0,-7.543844223E0,1.244074821E0,8.503014696E0
6.248448076E0,3.641087055E0,-8.479520798E0,-1.303747177E0,9.319846812E0
6.253189326E0,3.605113506E0,-9.384928703E0,-3.778223515E0,1.074005135E1
6.257930628E0,3.552701473E0,-1.017058659E1,-6.095874786E0,1.237829587E1
6.262671878E0,3.563173771E0,-1.088633060E1,-8.096376419E0,1.402710635E1
6.267413128E0,3.573565006E0,-1.156810188E1,-9.707553864E0,1.551863235E1
6.272154430E0,3.598371744E0,-1.222104263E1,-1.101963902E1,1.684442360E1
6.276895680E0,3.680305481E0,-1.271150589E1,-1.218042374E1,1.798582088E1
6.281636930E0,3.710317373E0,-1.309243011E1,-1.318956852E1,1.895106591E1
6.286378232E0,3.733240366E0,-1.335164356E1,-1.412632561E1,1.979284074E1
6.291119482E0,3.780823946E0,-1.349532318E1,-1.553464127E1,2.092231958E1
6.295860732E0,3.794574261E0,-1.354108047E1,-1.688016510E1,2.197042621E1
6.300602034E0,3.720116138E0,-1.356615067E1,-1.830385590E1,2.308486189E1
6.305343284E0,3.523470163E0,-1.369313049E1,-1.951399803E1,2.409798298E1
6.310084534E0,3.282443762E0,-1.380292892E1,-2.054720116E1,2.496963675E1
6.314825784E0,3.086444139E0,-1.386514282E1,-2.158137512E1,2.583648728E1
6.319567086E0,2.835978985E0,-1.390457726E1,-2.243085289E1,2.654285604E1
6.324308336E0,2.515881538E0,-1.391318512E1,-2.290716743E1,2.691922547E1
6.329049586E0,2.092241764E0,-1.387861729E1,-2.295543480E1,2.690623497E1
6.333790888E0,1.696918726E0,-1.376992607E1,-2.268500328E1,2.659134767E1
6.338532138E0,1.352252007E0,-1.362581635E1,-2.208968353E1,2.598933580E1
6.343273388E0,1.143770099E0,-1.350202751E1,-2.115283966E1,2.512081971E1
6.348014690E0,1.279686928E0,-1.340873337E1,-2.008947372E1,2.418715948E1
6.352755940E0,1.784986973E0,-1.329146957E1,-1.907331085E1,2.331610021E1
6.357497190E0,2.503962278E0,-1.319603157E1,-1.804586983E1,2.249574391E1
6.362238493E0,3.305557728E0,-1.307262707E1,-1.691013336E1,2.162805818E1
6.366979743E0,3.879220009E0,-1.291486263E1,-1.565489197E1,2.066198604E1
6.371720993E0,4.165151596E0,-1.277893925E1,-1.413461494E1,1.950479725E1
6.376462243E0,4.299048424E0,-1.265939522E1,-1.236833572E1,1.821312256E1
6.381203545E0,4.363942146E0,-1.248157310E1,-1.048499870E1,1.687509573E1
6.385944795E0,4.316165924E0,-1.226642609E1,-8.606526375E0,1.559380625E1
6.390686045E0,4.149682999E0,-1.205383587E1,-6.953176975E0,1.452107083E1
6.395427347E0,3.750039101E0,-1.187377262E1,-5.544670582E0,1.363057744E1
6.400168597E0,3.116558552E0,-1.166532898E1,-4.350669384E0,1.283437422E1
6.404909847E0,2.383969784E0,-1.142239952E1,-3.393966675E0,1.215209992E1
6.409651149E0,1.540779114E0,-1.113378143E1,-2.755160093E0,1.157263999E1
6.414392399E0,7.644432783E-1,-1.080455303E1,-2.455530643E0,1.110641123E1
6.419133649E0,1.296599507E-1,-1.040579414E1,-2.435593605E0,1.068781922E1
6.423874899E0,-2.478792667E-1,-9.943983078E0,-2.755991459E0,1.032180859E1
6.428616201E0,-4.506642818E-1,-9.523118019E0,-3.413205624E0,1.012634424E1
6.433357451E0,-5.152378082E-1,-9.122585297E0,-4.248357773E0,1.007648631E1
6.438098701E0,-5.112728477E-1,-8.750697136E0,-4.958977222E0,1.007112483E1
6.442839951E0,-4.625383019E-1,-8.363744736E0,-5.347424507E0,9.937862775E0
6.447581253E0,-3.950159550E-1,-7.992856026E0,-5.344661236E0,9.623262897E0
6.452322503E0,-2.462158799E-1,-7.574155807E0,-4.993377686E0,9.075366613E0
6.457063753E0,-6.804168224E-2,-7.037216187E0,-4.311677933E0,8.253339198E0
6.461805055E0,1.957126856E-1,-6.505663395E0,-3.465569973E0,7.373746327E0
6.466546305E0,5.080823898E-1,-5.863952637E0,-2.599259377E0,6.434301636E0
6.471287555E0,9.044376016E-1,-5.049381733E0,-1.753812790E0,5.421265771E0
6.476028805E0,1.183683276E0,-4.135752678E0,-8.002977371E-1,4.375617988E0
6.480770107E0,1.436991453E0,-3.108063698E0,1.460042000E-1,3.427290710E0
6.485511357E0,1.473268032E0,-2.003609657E0,9.745259285E-1,2.671080519E0
6.490252607E0,1.253985643E0,-8.278827667E-1,1.545546532E0,2.155593642E0
6.494993857E0,7.775362730E-1,3.832545280E-1,1.776206493E0,1.976450403E0
6.499735159E0,5.521655083E-2,1.482414722E0,1.652219772E0,2.220457712E0
6.504476409E0,-1.156491280E0,2.402127266E0,1.110477924E0,2.888052753E0
6.509217659E0,-2.980565548E0,3.161139011E0,4.390077591E-1,4.366840809E0
6.513958961E0,-5.027272224E0,3.952246189E0,-1.104083061E-1,6.395772506E0
6.518700211E0,-6.843272209E0,4.786332130E0,-7.579040527E-1,8.385330545E0
6.523441461E0,-8.324534416E0,5.473843098E0,-1.767316818E0,1.011850978E1
6.528182711E0,-9.542987823E0,5.997793198E0,-2.957859278E0,1.165294260E1
6.532924013E0,-1.034849644E1,6.790246487E0,-3.655641556E0,1.290591109E1
6.537665263E0,-9.962450981E0,7.641900539E0,-4.055159092E0,1.319444537E1
6.542406513E0,-8.954293251E0,8.104694366E0,-4.383902550E0,1.284850341E1
6.547147763E0,-7.736574173E0,8.201976776E0,-4.447743893E0,1.212061998E1
6.551889065E0,-6.457680702E0,8.030530930E0,-3.824491978E0,1.099171533E1
6.556630315E0,-5.325360298E0,7.750475883E0,-2.062033176E0,9.627113770E0
6.561371565E0,-4.647859573E0,7.500909328E0,1.021141529E0,8.883072069E0
6.566112815E0,-4.159850597E0,7.175874233E0,4.890477657E0,9.628826498E0
6.570854118E0,-3.639713764E0,6.717054367E0,9.065322876E0,1.185522731E1
6.575595368E0,-3.052819729E0,6.196289062E0,1.263155460E1,1.439687043E1
6.580336618E0,-2.462577343E0,5.559812546E0,1.511686707E1,1.629403181E1
6.585077868E0,-1.944297791E0,4.948260307E0,1.713663483E1,1.794240305E1
6.589819170E0,-1.654853225E0,4.478429794E0,1.878627777E1,1.938347505E1
6.594560420E0,-1.708739281E0,4.142380714E0,2.046046257E1,2.094539655E1
6.599301670E0,-1.965014100E0,3.855734825E0,2.173577881E1,2.216240176E1
6.604042920E0,-2.084026098E0,3.700143814E0,2.203760910E1,2.244304890E1
6.608784170E0,-2.011740208E0,3.799271584E0,2.120361328E1,2.163503592E1
6.613525472E0,-1.568909049E0,4.351698875E0,1.942129326E1,1.996460344E1
6.618266722E0,-7.650325298E-1,5.321690559E0,1.724981499E1,1.806825344E1
6.623007972E0,3.023637533E-1,6.458246231E0,1.485952377E1,1.620511694E1
6.627749222E0,1.408895373E0,7.838221550E0,1.226622391E1,1.462473768E1
6.632490524E0,2.075881720E0,9.349010468E0,9.748129845E0,1.366525950E1
6.637231774E0,2.370976925E0,1.103769588E1,7.470659256E0,1.353746696E1
6.641973024E0,2.753044605E0,1.287135410E1,5.844374657E0,1.440165706E1
6.646714274E0,3.203482866E0,1.447411060E1,4.987558365E0,1.564090530E1
6.651455576E0,3.382470369E0,1.573734093E1,5.239020824E0,1.692785705E1
6.656196826E0,3.134461880E0,1.656876183E1,6.461341858E0,1.805817428E1
6.660938076E0,2.511845112E0,1.663260269E1,7.610974312E0,1.846292957E1
6.665679326E0,1.775525093E0,1.607959747E1,7.835370064E0,1.797495392E1
6.670420576E0,1.613984108E0,1.530969429E1,6.931320190E0,1.688297615E1
6.675161878E0,2.004107237E0,1.463177395E1,5.433925629E0,1.573635290E1
6.679903128E0,2.586025715E0,1.408166504E1,3.935501814E0,1.484819834E1
6.684644378E0,3.173893213E0,1.361353683E1,2.675108433E0,1.423229386E1
6.689385628E0,3.531083822E0,1.316483116E1,1.624260426E0,1.372660025E1
6.694126930E0,3.523458719E0,1.285484791E1,8.023791313E-1,1.335311531E1
6.698868180E0,3.184312105E0,1.257086468E1,2.361390591E-1,1.297005181E1
6.703609430E0,2.443631172E0,1.217156506E1,-7.850790024E-2,1.241468859E1
6.708350680E0,1.321356773E0,1.151340961E1,-1.933639050E-1,1.159059853E1
6.713091930E0,-1.371499896E-1,1.054390144E1,-3.610470295E-1,1.055097260E1
6.717833232E0,-1.724387646E0,9.519184113E0,-5.928785801E-1,9.692258970E0
6.722574482E0,-3.163389444E0,8.410747528E0,-9.629772902E-1,9.037423970E0
6.727315732E0,-4.411150932E0,7.113885880E0,-1.483922362E0,8.501038197E0
6.732056982E0,-5.536637783E0,5.708360672E0,-2.092070341E0,8.222925137E0
6.736798232E0,-6.481480598E0,4.293001175E0,-2.527328968E0,8.174768593E0
6.741539534E0,-7.052630424E0,2.882855415E0,-2.723072290E0,8.091079900E0
6.746280784E0,-7.190030575E0,1.416444778E0,-2.695877552E0,7.808368027E0
6.751022034E0,-6.885425091E0,-1.175327301E-1,-2.456833839E0,7.311561060E0
6.755763284E0,-6.273805141E0,-1.644730091E0,-2.018144846E0,6.792545667E0
6.760504586E0,-5.585788250E0,-3.115420818E0,-1.060800552E0,6.483222583E0
6.765245836E0,-4.865509987E0,-4.413912773E0,3.408122063E-1,6.578143078E0
6.769987086E0,-4.059272289E0,-5.497292995E0,2.130144596E0,7.157893391E0
6.774728336E0,-3.283405542E0,-6.349868774E0,4.136588573E0,8.259113175E0
6.779469586E0,-2.589527607E0,-6.970846176E0,6.136962891E0,9.641611025E0
6.784210836E0,-1.990451336E0,-7.388360500E0,7.981860638E0,1.105711837E1
6.788952138E0,-1.615578532E0,-7.742472172E0,9.393751144E0,1.228000529E1
6.793693388E0,-1.378461361E0,-8.026486397E0,1.010094070E1,1.297511629E1
6.798434638E0,-1.120033860E0,-8.120203018E0,1.004518509E1,1.296525805E1
6.803175888E0,-8.005943894E-1,-8.232015610E0,9.022371292E0,1.223969837E1
6.807917138E0,-5.221885443E-1,-8.453936577E0,7.197405815E0,1.111505173E1
6.812658440E0,-3.325679898E-1,-8.798211098E0,5.145474434E0,1.019779521E1
6.817399690E0,-2.733929157E-1,-9.133364677E0,3.077707291E0,9.641855433E0
6.822140940E0,-2.535712719E-1,-9.476196289E0,9.660186768E-1,9.528682311E0
6.826882190E0,-2.882242799E-1,-9.790604591E0,-1.222679377E0,9.870864013E0
6.831623440E0,-5.269122720E-1,-9.966610909E0,-3.301043510E0,1.051227177E1
6.836364743E0,-9.427833557E-1,-1.013389111E1,-5.054870605E0,1.136381565E1
6.841105993E0,-1.164927244E0,-1.026678944E1,-6.616586685E0,1.226960636E1
6.845847243E0,-1.150655746E0,-1.036603546E1,-8.324207306E0,1.334432940E1
6.850588493E0,-1.046252131E0,-1.052089405E1,-1.003964806E1,1.458006818E1
6.855329743E0,-1.079294324E0,-1.072759438E1,-1.161974907E1,1.585133199E1
6.860070993E0,-1.209337115E0,-1.098290157E1,-1.278660965E1,1.689923103E1
6.864812295E0,-1.395381689E0,-1.123873520E1,-1.336200142E1,1.751568842E1
6.869553545E0,-1.390052080E0,-1.143282700E1,-1.358865643E1,1.781273032E1
6.874294795E0,-1.256320953E0,-1.151047707E1,-1.354813576E1,1.782193612E1
6.879036045E0,-9.968032241E-1,-1.161567116E1,-1.334060383E1,1.771691688E1
6.883777295E0,-6.016330123E-1,-1.162206268E1,-1.301813412E1,1.746156119E1
6.888518597E0,-6.785780191E-2,-1.159469795E1,-1.267342949E1,1.717723611E1
6.893259847E0,3.899122477E-1,-1.152203083E1,-1.232722855E1,1.687808608E1
6.898001097E0,7.651795149E-1,-1.148100471E1,-1.197378540E1,1.660633932E1
6.902742347E0,1.154471755E0,-1.145760155E1,-1.158825874E1,1.633698806E1
6.907483597E0,1.357693911E0,-1.142102909E1,-1.113636875E1,1.600943307E1
6.912224847E0,1.107515454E0,-1.137170887E1,-1.050700951E1,1.552222928E1
6.916966149E0,3.609253168E-1,-1.127897644E1,-9.689449310E0,1.487383624E1
6.921707399E0,-3.559434414E-1,-1.105265522E1,-8.820760727E0,1.414544814E1
6.926448649E0,-8.253616095E-1,-1.077479362E1,-7.978486061E0,1.343255892E1
6.931189899E0,-1.185796499E0,-1.052252579E1,-7.242725372E0,1.282913610E1
6.935931149E0,-1.393456817E0,-1.031080818E1,-6.585907936E0,1.231375940E1
6.940672399E0,-1.219831705E0,-9.944155693E0,-6.081254959E0,1.171989265E1
6.945413701E0,-8.644534349E-1,-9.497309685E0,-5.735567093E0,1.112847253E1
6.950154951E0,-4.430186152E-1,-9.080742836E0,-5.579658031E0,1.066718049E1
6.954896201E0,3.865790367E-2,-8.806959152E0,-5.690124035E0,1.048530092E1
6.959637451E0,4.951945543E-1,-8.661231995E0,-6.091329098E0,1.060030412E1
6.964378701E0,9.339218140E-1,-8.492532730E0,-6.477429390E0,1.072158634E1
6.969119951E0,1.302075505E0,-8.250522614E0,-6.741126060E0,1.073355973E1
6.973861201E0,1.592060804E0,-8.011742592E0,-6.849084854E0,1.065986118E1
6.978602503E0,1.731476188E0,-7.819135189E0,-6.897065163E0,1.056912450E1
6.983343753E0,1.690690517E0,-7.655671120E0,-6.851729393E0,1.041220104E1
6.988085003E0,1.470738411E0,-7.573760033E0,-6.751231670E0,1.025202622E1
6.992826253E0,1.131932259E0,-7.554022789E0,-6.628761292E0,1.011360505E1
6.997567503E0,7.032512426E-1,-7.491126537E0,-6.285352707E0,9.803937870E0
7.002308753E0,8.447360992E-2,-7.440278530E0,-5.718049049E0,9.384080420E0
7.007050055E0,-5.036576986E-1,-7.360982418E0,-5.187070847E0,9.019059663E0
7.011791305E0,-8.657533526E-1,-7.322685719E0,-4.790221691E0,8.793035815E0
7.016532555E0,-1.070971489E0,-7.306350708E0,-4.431665421E0,8.612165755E0
7.021273805E0,-1.269074202E0,-7.288167477E0,-4.030193329E0,8.424392724E0
7.026015055E0,-1.367891073E0,-7.165743828E0,-3.540160179E0,8.108744951E0
7.030756305E0,-1.291983604E0,-7.016230106E0,-3.071321011E0,7.767220821E0
7.035497555E0,-1.164511919E0,-6.880691051E0,-2.664159536E0,7.469788711E0
7.040238857E0,-9.508340359E-1,-6.836054325E0,-2.392483950E0,7.304772656E0
7.044980107E0,-7.190802097E-1,-6.846735001E0,-2.212940693E0,7.231318208E0
7.049721357E0,-2.785844803E-1,-6.712282181E0,-1.986621141E0,7.005640938E0
7.054462607E0,3.515225649E-1,-6.543096066E0,-1.929266930E0,6.830647489E0
7.059203857E0,9.436190128E-1,-6.425089836E0,-2.213809967E0,6.860987598E0
7.063945107E0,1.350626469E0,-6.338824749E0,-2.546416521E0,6.963413542E0
7.068686357E0,1.491287947E0,-6.310286045E0,-2.800632238E0,7.063086482E0
7.073427607E0,1.271293044E0,-6.348592758E0,-2.995788336E0,7.134112682E0
7.078168909E0,8.059792519E-1,-6.355182171E0,-3.203653812E0,7.162495426E0
7.082910159E0,2.150164843E-1,-6.334513664E0,-3.316410303E0,7.153381910E0
7.087651409E0,-3.723640442E-1,-6.252906322E0,-3.309971333E0,7.084730248E0
7.092392659E0,-1.034757853E0,-6.153242588E0,-3.181942463E0,7.004132780E0
7.097133909E0,-1.879166126E0,-6.078393936E0,-2.958654881E0,7.016535960E0
7.101875159E0,-2.840316296E0,-6.116621971E0,-2.862495422E0,7.326277434E0
7.106616409E0,-3.651750088E0,-6.117114544E0,-2.816587687E0,7.660779023E0
7.111357659E0,-4.039202213E0,-6.151664734E0,-2.804074287E0,7.875339112E0
7.116098961E0,-4.045489311E0,-6.191332817E0,-2.966499329E0,7.968607412E0
7.120840211E0,-3.846592426E0,-6.257067680E0,-3.266535282E0,8.038496252E0
7.125581461E0,-3.603855133E0,-6.384393692E0,-3.446550846E0,8.101047301E0
7.130322711E0,-3.255813599E0,-6.523208141E0,-3.289200306E0,7.998212631E0
7.135063961E0,-2.587829113E0,-6.618996143E0,-2.868718147E0,7.664040271E0
7.139805211E0,-1.722675085E0,-6.629413605E0,-2.311636209E0,7.229135229E0
7.144546461E0,-8.574320674E-1,-6.665359497E0,-1.581417799E0,6.903845974E0
7.149287711E0,9.276485443E-2,-6.606149673E0,-4.733495712E-1,6.623736003E0
7.154029013E0,1.292096615E0,-6.352667809E0,6.620731354E-1,6.516459375E0
7.158770263E0,2.756618500E0,-5.697697163E0,1.359086514E0,6.473779009E0
7.163511513E0,4.049450874E0,-4.919019699E0,1.642010689E0,6.579590131E0
7.168252763E0,4.931324959E0,-4.083611012E0,1.760199547E0,6.640191803E0
7.172994013E0,5.447680473E0,-3.150417805E0,1.880968571E0,6.568135021E0
7.177735263E0,5.828097820E0,-1.956001759E0,1.862222195E0,6.423436665E0
7.182476513E0,6.050823689E0,-4.943842888E-1,1.546792984E0,6.264938281E0
7.187217763E0,5.694383621E0,1.150374413E0,8.672218323E-1,5.873792627E0
7.191959013E0,4.803734779E0,3.148416042E0,-6.571245193E-2,5.743928058E0
7.196700263E0,3.550132990E0,5.617043972E0,-8.354680538E-1,6.697210919E0
7.201441565E0,2.321302176E0,8.510413170E0,-8.990237713E-1,8.867007379E0
7.206182815E0,9.444733262E-1,1.160283470E1,1.671767235E-1,1.164241174E1
7.210924065E0,-8.407047987E-1,1.433067703E1,2.515903473E0,1.457411606E1
7.215665315E0,-2.315089226E0,1.674655914E1,5.666510582E0,1.783020537E1
7.220406565E0,-3.395127535E0,1.874004555E1,9.273546219E0,2.118289068E1
7.225147815E0,-4.472766399E0,2.003404808E1,1.295973015E1,2.427598252E1
7.229889065E0,-5.150661469E0,2.082325745E1,1.628058624E1,2.692944212E1
7.234630315E0,-5.489924908E0,2.086909866E1,1.948589325E1,2.907505099E1
7.239371565E0,-5.601443291E0,2.031050682E1,2.289529991E1,3.111410632E1
7.244112868E0,-5.181540966E0,1.956438255E1,2.706233978E1,3.379324882E1
7.248854065E0,-4.000401020E0,1.890961266E1,3.117371559E1,3.667938389E1
7.253595368E0,-2.029451370E0,1.849734879E1,3.469283676E1,3.936830588E1
7.258336618E0,7.444962263E-1,1.848327446E1,3.698793030E1,4.135568518E1
7.263077868E0,3.566871643E0,1.900442123E1,3.784043884E1,4.249458097E1
7.267819118E0,5.555481911E0,1.980895615E1,3.739357758E1,4.267947711E1
7.272560368E0,6.699779510E0,2.061482430E1,3.600424194E1,4.202574763E1
7.277301618E0,7.256052017E0,2.137054443E1,3.389603043E1,4.072212346E1
7.282042868E0,7.153921127E0,2.192052078E1,3.122380829E1,3.881512621E1
7.286784118E0,6.428596973E0,2.233970642E1,2.829207611E1,3.661735808E1
7.291525368E0,5.435330391E0,2.253137589E1,2.523969269E1,3.426729932E1
7.296266618E0,4.527019501E0,2.248552895E1,2.215268707E1,3.188784192E1
7.301007868E0,3.841444016E0,2.216390610E1,1.901182747E1,2.945241941E1
7.305749170E0,3.169807911E0,2.144518280E1,1.578340912E1,2.681528577E1
7.310490420E0,2.728046179E0,2.046660614E1,1.247444725E1,2.412335045E1
7.315231670E0,2.411222458E0,1.922907448E1,9.433753967E0,2.155381667E1
7.319972920E0,2.040077209E0,1.789068604E1,6.890756130E0,1.928006955E1
7.324714170E0,1.511883020E0,1.640815353E1,4.823772907E0,1.716921890E1
7.329455420E0,8.915958405E-1,1.482643127E1,3.113248825E0,1.517597858E1
7.334196670E0,1.660826802E-2,1.318057823E1,1.635200977E0,1.328163396E1
7.338937920E0,-1.067534089E0,1.139541340E1,2.946600914E-1,1.144910041E1
7.343679170E0,-2.156963825E0,9.641977310E0,-7.926402092E-1,9.912038029E0
7.348420420E0,-2.925349712E0,8.057367325E0,-1.646975994E0,8.728766756E0
7.353161670E0,-3.459219933E0,6.675348759E0,-2.266453743E0,7.852598052E0
7.357902920E0,-3.798717260E0,5.325896263E0,-2.600445271E0,7.039725807E0
7.362644170E0,-3.848291874E0,4.037410736E0,-2.705428123E0,6.199143258E0
7.367385420E0,-3.576028585E0,2.692105293E0,-2.665953159E0,5.209867331E0
7.372126670E0,-3.064096689E0,1.429901600E0,-2.419748783E0,4.157943155E0
7.376867972E0,-2.422384024E0,1.868591309E-1,-1.932958126E0,3.104704142E0
7.381609222E0,-1.707284212E0,-1.008122444E0,-1.214608192E0,2.325167371E0
7.386350472E0,-1.027215481E0,-2.227375031E0,-1.706018448E-1,2.458755002E0
7.391091722E0,-4.230923057E-1,-3.381451130E0,1.116346836E0,3.586007404E0
7.395832972E0,1.913431883E-1,-4.362377167E0,2.541794300E0,5.052490972E0
7.400574222E0,7.804739475E-1,-5.164852142E0,3.766052723E0,6.439564453E0
7.405315472E0,1.258443117E0,-5.842742920E0,4.628011227E0,7.559088028E0
7.410056722E0,1.640015125E0,-6.484893322E0,5.020534515E0,8.363567291E0
7.414797972E0,1.788431644E0,-7.109991550E0,5.017695427E0,8.884128263E0
7.419539222E0,1.800300837E0,-7.709639549E0,4.690679073E0,9.202287501E0
7.424280472E0,1.830714464E0,-8.248483658E0,4.072251797E0,9.379351406E0
7.429021722E0,1.849484682E0,-8.733479500E0,3.259594917E0,9.503642291E0
7.433762972E0,1.794532299E0,-9.216553688E0,2.302165985E0,9.667738944E0
7.438504222E0,1.567443848E0,-9.682244301E0,1.371507645E0,9.903724963E0
7.443245472E0,1.291685581E0,-1.016775990E1,5.128087997E-1,1.026229827E1
7.447986722E0,8.962404728E-1,-1.056418228E1,-3.432893753E-1,1.060768787E1
7.452727972E0,4.413762093E-1,-1.090368462E1,-1.191722870E0,1.097749309E1
7.457469222E0,3.239130974E-2,-1.115111923E1,-2.120781422E0,1.135104503E1
7.462210524E0,-3.213517666E-1,-1.131645679E1,-3.187850475E0,1.176128615E1
7.466951722E0,-6.848717928E-1,-1.144532490E1,-4.352451324E0,1.226410795E1
7.471693024E0,-1.027552605E0,-1.163337898E1,-5.596010208E0,1.295016221E1
7.476434274E0,-1.280638933E0,-1.183518028E1,-6.883429050E0,1.375111355E1
7.481175524E0,-1.429736853E0,-1.202717972E1,-8.060291290E0,1.454872830E1
7.485916774E0,-1.488800883E0,-1.217650986E1,-9.118421555E0,1.528494462E1
7.490658024E0,-1.495536089E0,-1.225787544E1,-1.007351303E1,1.593636732E1
7.495399274E0,-1.494446993E0,-1.230126762E1,-1.082174492E1,1.645189108E1
7.500140524E0,-1.496054411E0,-1.231529617E1,-1.151781178E1,1.692822161E1
7.504881774E0,-1.482368231E0,-1.228234386E1,-1.217526913E1,1.735772349E1
7.509623024E0,-1.440134287E0,-1.222784805E1,-1.284383202E1,1.779208463E1
7.514364274E0,-1.363140821E0,-1.211519814E1,-1.354215622E1,1.822158538E1
7.519105524E0,-1.240364552E0,-1.198208427E1,-1.424111366E1,1.865256460E1
7.523846774E0,-9.957159758E-1,-1.179694748E1,-1.484709740E1,1.898935811E1
7.528588024E0,-7.441189289E-1,-1.159053802E1,-1.539095116E1,1.928148496E1
7.533329274E0,-4.781918824E-1,-1.128609467E1,-1.585313225E1,1.946603201E1
7.538070524E0,-2.123925537E-1,-1.092181492E1,-1.628328323E1,1.960807141E1
7.542811774E0,-1.500812173E-1,-1.058856201E1,-1.660639191E1,1.969549243E1
7.547553024E0,-2.844339013E-1,-1.034618473E1,-1.678053284E1,1.971574811E1
7.552294274E0,-4.291400015E-1,-1.011108875E1,-1.685194206E1,1.965721822E1
7.557035524E0,-5.747677684E-1,-9.859627724E0,-1.679228783E1,1.948136410E1
7.561776774E0,-6.326663494E-1,-9.584959984E0,-1.652510071E1,1.911414863E1
7.566518024E0,-6.476771832E-1,-9.325619698E0,-1.613879585E1,1.865066755E1
7.571259274E0,-6.695024967E-1,-9.129769325E0,-1.558729172E1,1.807663090E1
7.576000524E0,-6.736189723E-1,-8.988221169E0,-1.486478233E1,1.738400518E1
7.580741774E0,-7.598609924E-1,-8.956392288E0,-1.405370617E1,1.668235621E1
7.585483024E0,-9.035701156E-1,-9.005985260E0,-1.310709095E1,1.592859199E1
7.590224274E0,-1.137726188E0,-9.094554901E0,-1.194900894E1,1.505935471E1
7.594965524E0,-1.354601979E0,-9.261139870E0,-1.082625008E1,1.431123157E1
7.599706774E0,-1.554025054E0,-9.408583641E0,-9.619327545E0,1.354503239E1
7.604448024E0,-1.594474673E0,-9.461328506E0,-8.426715851E0,1.276983268E1
7.609189274E0,-1.492130518E0,-9.482526779E0,-7.289670944E0,1.205338418E1
7.613930524E0,-1.332680941E0,-9.518437386E0,-6.321424007E0,1.150378591E1
7.618671774E0,-1.185194850E0,-9.574672699E0,-5.491672993E0,1.110123941E1
7.623413024E0,-9.823536873E-1,-9.637533188E0,-4.837516308E0,1.082814059E1
7.628154274E0,-7.096348405E-1,-9.714750290E0,-4.341268539E0,1.066426591E1
7.632895524E0,-4.409451485E-1,-9.770940781E0,-3.973489761E0,1.055719363E1
7.637636774E0,-1.806702912E-1,-9.756402969E0,-3.678556681E0,1.042841406E1
7.642378024E0,8.825856447E-2,-9.657344818E0,-3.455995798E0,1.025748534E1
7.647119326E0,2.994354069E-1,-9.555450439E0,-3.300830364E0,1.011393968E1
7.651860524E0,4.342865944E-1,-9.518087387E0,-3.200774431E0,1.005124616E1
7.656601774E0,4.934137762E-1,-9.493002892E0,-3.076614618E0,9.991302146E0
7.661343024E0,4.535643458E-1,-9.368444443E0,-2.987693310E0,9.843768750E0
7.666084274E0,3.730701208E-1,-9.164175987E0,-2.850021601E0,9.604370149E0
7.670825524E0,2.673144341E-1,-8.868895531E0,-2.842711926E0,9.317176398E0
7.675566774E0,8.699405193E-2,-8.571367264E0,-2.932271957E0,9.059477003E0
7.680308024E0,-1.310599297E-1,-8.286200523E0,-3.068406820E0,8.837047937E0
7.685049274E0,-1.373718530E-1,-8.025493622E0,-3.263130903E0,8.664608600E0
7.689790524E0,-9.880472720E-2,-7.777430534E0,-3.497307777E0,8.528150431E0
7.694531774E0,-6.233927608E-2,-7.618718147E0,-3.689579487E0,8.465326289E0
7.699273024E0,4.947039485E-2,-7.439493179E0,-3.918801069E0,8.408656724E0
7.704014274E0,3.380456269E-1,-7.215701103E0,-4.283234596E0,8.398018568E0
7.708755524E0,6.100836396E-1,-7.006776810E0,-4.744861126E0,8.484151720E0
7.713496774E0,9.279015064E-1,-6.824123859E0,-5.249016762E0,8.659205773E0
7.718238024E0,1.176491261E0,-6.652607441E0,-5.746038914E0,8.868950369E0
7.722979274E0,1.353131890E0,-6.452781677E0,-6.294305801E0,9.115242334E0
7.727720524E0,1.459514260E0,-6.151424408E0,-6.959631920E0,9.402482682E0
7.732461774E0,1.389104962E0,-5.871489048E0,-7.544724464E0,9.660582978E0
7.737203024E0,1.130869150E0,-5.559011459E0,-7.969562531E0,9.782402587E0
7.741944274E0,8.891280293E-1,-5.128826141E0,-8.321866989E0,9.815746351E0
7.746685524E0,6.745420098E-1,-4.455005646E0,-8.668017387E0,9.769166170E0
7.751426774E0,4.115260541E-1,-3.555349112E0,-8.787331581E0,9.488258919E0
7.756168024E0,3.286325932E-2,-2.596461773E0,-8.645455360E0,9.026992418E0
7.760909274E0,-5.823628306E-1,-1.714468479E0,-8.283970833E0,8.479547240E0
7.765650524E0,-1.236708164E0,-9.904580116E-1,-7.914165974E0,8.071212871E0
7.770391774E0,-1.661916018E0,-1.651196480E-1,-7.800317764E0,7.977103896E0
7.775133024E0,-1.789672732E0,7.725362778E-1,-8.092040062E0,8.323512068E0
7.779874274E0,-1.618948460E0,1.726407051E0,-8.838674545E0,9.150062466E0
7.784615524E0,-9.276858568E-1,2.657971382E0,-9.787824631E0,1.018464157E1
7.789356774E0,5.400201082E-1,3.716405392E0,-1.086934471E1,1.149982370E1
7.794098024E0,2.296337605E0,4.886994839E0,-1.180292130E1,1.297940045E1
7.798839274E0,3.548254490E0,5.656913280E0,-1.168295288E1,1.345667737E1
7.803580524E0,4.163000107E0,5.932031631E0,-9.446491241E0,1.190612304E1
7.808321774E0,4.072879314E0,6.078849792E0,-4.394572258E0,8.535398411E0
7.813063024E0,2.699399471E0,6.397014618E0,3.960837364E0,7.993546532E0
7.817804274E0,-2.525889874E-2,6.801060200E0,1.442970181E1,1.595215823E1
7.822545524E0,-3.897544622E0,7.098793030E0,2.488896179E1,2.617334781E1
7.827286774E0,-7.950008392E0,7.433740616E0,3.465470886E1,3.632371098E1
7.832028024E0,-1.131397343E1,7.883450985E0,4.398639679E1,4.609726561E1
7.836769274E0,-1.371046257E1,8.819290161E0,5.135704041E1,5.388230008E1
7.841510524E0,-1.498576069E1,1.043341255E1,5.535356903E1,5.828762069E1
7.846251774E0,-1.483604431E1,1.264357662E1,5.546586609E1,5.879141554E1
7.850993024E0,-1.389888191E1,1.491407967E1,5.222544098E1,5.606340496E1
7.855734274E0,-1.304541492E1,1.679912567E1,4.765810394E1,5.218896766E1
7.860475524E0,-1.237827492E1,1.826686287E1,4.333716583E1,4.863136757E1
7.865216774E0,-1.183633709E1,1.935106850E1,3.991818619E1,4.591322594E1
7.869957972E0,-1.126119614E1,2.007571602E1,3.727338028E1,4.380814752E1
7.874699222E0,-1.046419144E1,2.047500992E1,3.532884216E1,4.215272734E1
7.879440472E0,-9.290831566E0,2.051256943E1,3.380341339E1,4.061718617E1
7.884181722E0,-7.742901325E0,2.039162064E1,3.238726044E1,3.904747561E1
7.888922972E0,-6.124775887E0,2.013637161E1,3.112420273E1,3.757262749E1
7.893664222E0,-4.489095211E0,1.982512856E1,3.025147247E1,3.644638919E1
7.898405472E0,-3.097665548E0,1.926262093E1,2.970936203E1,3.554279518E1
7.903146722E0,-2.217323303E0,1.845477676E1,2.904819870E1,3.448612990E1
7.907887972E0,-1.824831963E0,1.748174667E1,2.828266144E1,3.329940565E1
7.912629222E0,-1.682428837E0,1.642348862E1,2.739649963E1,3.198639926E1
