,Time (s),Linear Acceleration x (m/s^2),Linear Acceleration y (m/s^2),Linear Acceleration z (m/s^2),Absolute acceleration (m/s^2),labels
0,0.049830697,0.0,0.0,0.0,0.0,
1,0.054572937,-0.06470227242,0.003159761429,-0.1128206253,0.1300955866,
2,0.059315176,-0.1919293404,-0.007681846619,-0.2476415634,0.3134042539,
3,0.064057416,-0.4022357464,-0.06306576729,-0.4190502167,0.5842721718,
4,0.068799655,-0.3905675411,-0.1034998894,-0.5305595398,0.6668947867,
5,0.073541947,-0.1105804443,-0.001361370087,-0.496342659,0.5085134444,
6,0.078284187,0.007788658142,0.055747509,-0.1589174271,0.1685918046,
7,0.083026426,-0.07547855377,-0.2704954147,0.2846298218,0.3998486175,
8,0.087768666,-0.1104917526,-0.4613931179,0.2219953537,0.5238071914,
9,0.092510905,-0.116874218,-0.4937508106,0.2287511826,0.5565757355,
10,0.097253145,0.03341507912,-0.305182457,-0.01536178589,0.3073904423,
11,0.101995385,0.1162526608,-0.1644420624,-0.07874584198,0.2162331627,
12,0.106737624,0.1341707706,-0.1982388496,-0.03994369507,0.2426848491,
13,0.111479864,-0.03542542458,-0.2636842728,0.05421352386,0.2715206485,
14,0.116222103,-0.2261919975,-0.3933370113,0.1473464966,0.4770616462,
15,0.120964343,-0.2883687019,-0.4116880894,0.1482973099,0.5240569466,
16,0.125706582,-0.1691222191,-0.4065461159,0.1886205673,0.479019611,
17,0.130448822,-0.0918469429,-0.3858480453,0.3185691833,0.5087247779,
18,0.135191062,0.03970456123,-0.2615277767,0.5728607178,0.6309854453,
19,0.139933301,0.730946064,0.02732896805,0.4091701508,0.8381224453,
20,0.144675541,1.05053997,0.2028679848,0.4276838303,1.15226,
21,0.14941778,1.135326862,0.4358358383,0.3343629837,1.26123692,
22,0.15416002,1.291486979,0.700232029,0.05573177338,1.470159699,
23,0.15890226,1.457654715,0.9530756474,-0.3097343445,1.768910914,
24,0.163644499,1.59297812,1.146275997,-0.693353653,2.081409916,
25,0.168386739,1.708052397,1.297392368,-1.093634129,2.407634847,
26,0.173128978,1.713643789,1.310025215,-1.437679291,2.592231248,
27,0.177871218,1.698685169,1.235879421,-1.735617638,2.724939969,
28,0.182613457,1.596678734,1.041248083,-1.955255032,2.730678082,
29,0.187355697,1.357116461,0.8156273365,-2.088162899,2.62057958,
30,0.192097937,1.04687655,0.5874369144,-2.042254925,2.368931788,
31,0.196840176,0.8950521946,0.3121702671,-1.931846142,2.151882483,
32,0.201582416,0.7024569511,0.01596260071,-1.674566269,1.816004615,
33,0.206324655,0.4320151806,-0.4454283714,-1.322332382,1.460686989,
34,0.211066895,0.1905734539,-0.7939221859,-1.030413628,1.314679779,
35,0.215809135,-0.0863339901,-1.029088736,-0.8244366646,1.321428393,
36,0.220551374,-0.2936885357,-1.175725698,-0.6573758125,1.3786685,
37,0.225293614,-0.4431684017,-1.236740351,-0.5301542282,1.416682192,
38,0.230035853,-0.6650619507,-1.21715045,-0.492770195,1.471932431,
39,0.234778093,-0.8976199627,-1.12151289,-0.5336146355,1.532402473,
40,0.239520332,-1.101504087,-1.072890043,-0.6346321106,1.663478949,
41,0.244262572,-1.228510857,-0.9692902565,-0.7876024246,1.751879021,
42,0.249004812,-1.156998158,-0.937723875,-0.8865523338,1.7331895,
43,0.253747051,-0.7708659172,-0.8638896942,-1.171960831,1.647431897,
44,0.258489291,-0.3456861973,-0.783239603,-1.28895092,1.547371222,
45,0.26323153,-0.2106056213,-0.6928906441,-1.058301449,1.282362713,
46,0.267973718,0.057336092,-0.6519737244,-0.9838452339,1.18165503,
47,0.27271601,0.4940123558,-0.5986394882,-1.034500122,1.29329345,
48,0.277458197,0.8141218424,-0.4438657761,-1.12123394,1.454983419,
49,0.282200437,1.014961481,-0.2905015945,-1.142614365,1.55566885,
50,0.286942676,1.136162758,-0.1316399574,-1.010685444,1.526328915,
51,0.291684916,1.179287314,0.05807614326,-0.6505408287,1.348070762,
52,0.296427155,1.198441505,0.1553351879,-0.1031246185,1.212858503,
53,0.301169395,1.242987871,0.1355428696,0.3920297623,1.310373249,
54,0.305911635,1.28110826,0.07560253143,0.7992630005,1.511878124,
55,0.310653874,1.207939506,0.03917098045,1.125537872,1.651510738,
56,0.315396114,1.0168401,0.009082078934,1.455102921,1.775210067,
57,0.320138353,0.7280666828,-0.04290509224,1.666156769,1.818790895,
58,0.324880593,0.4789259434,-0.1190876961,1.617085457,1.69071503,
59,0.329622832,0.4186618328,-0.2237915993,1.455540657,1.530999352,
60,0.334365072,0.4352664948,-0.2950634956,1.154686928,1.26878733,
61,0.339107312,0.3711631298,-0.3022649288,0.8291769028,0.9574238832,
62,0.343849551,0.2242033482,-0.3045823574,0.4103336334,0.5580423322,
63,0.348591791,-0.1081049442,-0.3671784401,-0.08444499969,0.391966381,
64,0.35333403,-0.4784579277,-0.3888690472,-0.531908989,0.814290057,
65,0.35807627,-1.064053774,-0.3173511028,-0.6122779846,1.267993094,
66,0.36281851,-1.231133223,-0.2387993336,-0.9492778778,1.572845391,
67,0.367560749,-0.7786624432,-0.5088195801,-1.372078896,1.657652877,
68,0.372302989,-0.2377886772,-0.656781435,-1.77865839,1.91089795,
69,0.377045228,0.2193381786,-0.6350982189,-1.967278957,2.078856772,
70,0.381787468,0.3936789036,-0.3514635563,-1.649433136,1.73180235,
71,0.386529655,0.4958672523,0.1268155575,-0.6472935677,0.8252002668,
72,0.391271895,0.6994261742,0.5019288063,0.05931568146,0.8629298058,
73,0.396014135,0.8641102314,0.4094347954,0.08568191528,0.9600337152,
74,0.400756374,1.313521981,0.4895954132,0.8332490921,1.630750659,
75,0.405498614,6.319962025,1.345108032,11.32800961,13.04128204,
76,0.410240853,8.437480927,3.078410387,15.18964291,17.64632955,
77,0.414983093,8.100379944,4.409564495,11.81391048,14.98762474,
78,0.419725332,5.144476891,4.173140526,7.048135757,9.672484788,
79,0.424467572,1.277936459,2.577646494,1.986866951,3.496430082,
80,0.429209812,-1.629025102,0.8456254005,-1.628828049,2.453953119,
81,0.433952051,-3.003300667,-0.6043348312,-3.553359509,4.69163077,
82,0.438694291,-2.853004456,-1.03418982,-5.189777374,6.011902544,
83,0.44343653,-2.335309982,-0.9749844074,-5.212393761,5.79424853,
84,0.44817877,-0.8620541096,-0.6884508133,-4.60752821,4.737765086,
85,0.452920957,0.3776195049,-0.55483675,-2.694570065,2.776895414,
86,0.457663197,1.320469379,-0.1791937351,-0.6956014633,1.50320031,
87,0.462405437,1.77874279,0.1546413898,0.5120239258,1.857419816,
88,0.467147676,0.9161145687,0.2159674168,1.094408035,1.443480785,
89,0.471889916,-0.62413311,-0.02002501488,1.302836418,1.444758067,
90,0.476632155,-1.956487656,-0.4879851341,1.418552399,2.465413626,
91,0.481374395,-2.541239738,-1.021241903,1.425971985,3.087754934,
92,0.486116635,-2.400281429,-1.463779807,1.394763947,3.138370394,
93,0.490858874,-1.971643686,-1.764953136,1.263438225,2.932356484,
94,0.495601114,-1.679093361,-1.689175487,1.075157166,2.613164991,
95,0.500343353,-1.552927971,-1.313332796,0.8442564011,2.202089278,
96,0.505085593,-1.378167868,-0.8056963682,0.7201681137,1.751323905,
97,0.50982778,-0.8063235283,-0.209253788,0.6660881042,1.066591835,
98,0.51457002,0.06464004517,0.3629448414,0.4962072372,0.6181657671,
99,0.51931226,0.7371977568,0.815735817,0.1947755814,1.11661228,
100,0.524054499,2.008676052,1.242455721,-0.09972286224,2.363984,
101,0.528796739,2.328760862,1.405340433,-0.3045597076,2.736944556,
102,0.533538978,2.390719891,1.348229647,-0.3945512772,2.772892981,
103,0.538281218,2.450150013,1.131025553,-0.5579767227,2.755683565,
104,0.543023457,2.487133026,0.8931763172,-0.6872692108,2.730555546,
105,0.547765697,2.450360298,0.6846020222,-0.7114629745,2.641803377,
106,0.552507885,2.248268127,0.4713146687,-0.6431970596,2.385487277,
107,0.557250124,2.00099349,0.2053077221,-0.5756158829,2.092238001,
108,0.561992364,1.789426446,-0.07098245621,-0.5179738998,1.864237773,
109,0.566734603,1.740540147,-0.4645100832,-0.5503578186,1.8836516,
110,0.571476843,-0.7854506969,-1.644681573,-0.7611589432,1.975164097,
111,0.576219082,-26.69332886,-3.967990875,2.028866768,27.0627984,
112,0.580961322,-15.06424999,-1.371170044,2.488536835,15.32985814,
113,0.585703562,-2.60035491,-0.4393349886,4.655266762,5.350361625,
114,0.590445749,-0.7918694019,0.618683815,6.245457649,6.325785964,
115,0.595187989,-1.978361607,1.364877701,5.750717163,6.232780573,
116,0.599930228,-2.478932619,3.106499195,3.850392342,5.533621361,
117,0.604672468,-1.006391048,3.171754599,1.693963051,3.733947106,
118,0.609414707,-1.112595797,2.53572464,-0.5634422302,2.825815989,
119,0.614156947,-1.160419226,1.823737144,-1.705619812,2.753493943,
120,0.618899187,-0.3053209782,1.16442275,-1.663009644,2.052974017,
121,0.623641426,0.8245815039,0.6533215046,-1.045369148,1.483091468,
122,0.628383666,1.92559278,0.1943020821,-0.05135059357,1.936052101,
123,0.633125853,2.5159266,-0.3724575043,1.247504234,2.832821572,
124,0.637868093,1.58660388,-0.4557411671,-0.03961181641,1.651236197,
125,0.642610332,0.2468812466,-0.3163924217,-1.375123024,1.432486595,
126,0.647352572,0.09519338608,-0.06535243988,-1.231028557,1.236431975,
127,0.652094812,0.2428591251,0.07939434052,-0.2640647888,0.3674428237,
128,0.656837051,0.4065947533,-0.03580880165,0.4487218857,0.6065912086,
129,0.661579239,0.7726074457,-0.2458341122,0.4506788254,0.9276141868,
130,0.666321478,1.161986589,-0.5971989632,-0.113817215,1.311416713,
131,0.671063718,1.094857335,-0.9469344616,-0.3554067612,1.490540648,
132,0.675805957,1.073037744,-1.210933447,-0.4766683578,1.686707602,
133,0.680548197,1.213335276,-1.092449188,-0.39539814,1.679871248,
134,0.685290437,1.263191223,-0.641646862,-0.1197376251,1.421864923,
135,0.690032676,1.030121684,0.07182216644,0.2810249329,1.07017948,
136,0.694774864,0.7074428797,0.8951950073,0.6027154922,1.290393542,
137,0.699517103,0.6865662336,1.556536198,0.3280591965,1.732570623,
138,0.704259343,0.5943032503,1.6226933,-0.6250228882,1.837657071,
139,0.709001582,0.05919671059,1.136566639,-1.753585815,2.090538492,
140,0.713743822,-0.5703810453,0.4826841354,-2.441375732,2.553161565,
141,0.718486062,-0.8213196993,-0.09299373627,-2.610930443,2.738644128,
142,0.723228249,-0.7861213684,-0.4245998859,-2.632026672,2.77953886,
143,0.727970489,-0.5832340717,-0.4809806347,-2.467525005,2.58073323,
144,0.732712728,-0.5701915026,-0.3622918129,-2.156339169,2.259684119,
145,0.737454968,-0.9004395008,-0.2780609131,-1.665439606,1.913582568,
146,0.742197207,-1.335525036,-0.1674208641,-1.192556381,1.798290185,
147,0.746939395,-1.597908378,-0.0453209877,-0.8725094795,1.821163905,
148,0.751681635,-1.739682555,0.1577596664,-0.915845871,1.972348135,
149,0.756423874,-2.013799429,0.03074789047,-0.7853302956,2.161730151,
150,0.761166114,-1.777656198,0.03731775284,-0.3831334114,1.818858263,
151,0.765908353,-0.9130196571,0.7197875977,-1.962166309,2.280744551,
152,0.770650593,-0.5863193274,1.009205341,-1.693697453,2.056909535,
153,0.77539278,-0.02181708813,1.00571537,-1.132281303,1.514595768,
154,0.78013502,4.166273117,0.6179022789,-6.463582993,7.714761177,
155,0.78487726,7.66450119,0.04480075836,-14.28452492,16.21092958,
156,0.789619499,2.149502754,-0.4372010231,-6.179255962,6.557035235,
157,0.794361739,-1.744796753,-1.014841557,3.596394539,4.124108725,
158,0.799103926,-2.200890064,-1.372035742,6.543030739,7.038298829,
159,0.803846166,-1.948034048,-1.461537838,5.067679405,5.622482019,
160,0.808588405,-1.664010286,-2.117293119,2.426692963,3.625010224,
161,0.813330645,-0.6975131035,-2.09841609,0.2199068069,2.222213676,
162,0.818072885,-0.3311253786,-1.734873533,-0.8400416374,1.955786324,
163,0.822815072,-0.3710581064,-1.102827549,-0.5210547447,1.274915985,
164,0.827557312,-0.4058440924,-0.5707778931,0.1109218597,0.7090842612,
165,0.832299551,-0.5507359505,-0.3987660408,0.5316467285,0.8631180026,
166,0.837041791,-0.8091372252,-0.2236857414,0.6835842133,1.082601375,
167,0.84178403,-1.285151005,-0.07005977631,0.4897375107,1.377085439,
168,0.846526218,-1.836681843,-0.1311779022,0.02535629272,1.841534897,
169,0.851268457,-2.014527798,-0.0772767067,-0.1323060989,2.020346218,
170,0.856010697,-2.093044758,-0.02032232285,0.1363554001,2.09758007,
171,0.860752937,-2.199717045,0.2206950188,1.236201286,2.532914327,
172,0.865495176,-1.895669818,0.1497631073,1.690536499,2.544387294,
173,0.870237364,-1.895429254,-0.2910666466,1.76621151,2.607081691,
174,0.874979603,-1.494909763,-0.6760654449,2.066527367,2.638627492,
175,0.879721843,-1.320261359,-1.149439096,1.630739212,2.392406878,
176,0.884464082,-1.923018456,-1.324177265,0.1213302612,2.337983414,
177,0.88920627,-1.627246499,-1.211369514,-0.4417943954,2.076181485,
178,0.89394851,-0.714605093,-1.237525463,0.2840566635,1.456989327,
179,0.898690749,-0.3215020895,-1.120811224,0.809047699,1.419203852,
180,0.903432989,-0.5969151258,-1.03486824,0.8416461945,1.46137889,
181,0.908175176,-0.9642852545,-1.109475613,0.6081914902,1.590810823,
182,0.912917416,-1.132937789,-1.030643463,0.240937233,1.550427274,
183,0.917659655,-1.809823632,-1.228742123,-0.3603782654,2.21701179,
184,0.922401895,-2.335849285,-1.470121384,-1.141086102,2.986557593,
185,0.927144082,-2.119590998,-1.16595459,-0.8766880035,2.573071697,
186,0.931886322,-1.432475448,-0.5022397041,-0.3969898224,1.569022482,
187,0.936628562,-0.799530983,0.2790551186,-0.1322031021,0.8570876339,
188,0.941370801,-0.5526975393,0.9324531555,-0.1507043839,1.094374373,
189,0.946112989,-0.6569939852,1.287235737,-0.2248506546,1.462591794,
190,0.950855228,-0.6761237383,1.435491085,-0.1349954605,1.592482885,
191,0.955597468,-0.3419210911,1.852244854,0.07796001434,1.885152194,
192,0.960339707,0.3934391737,2.819537163,0.3257389069,2.865430165,
193,0.965081895,0.4862484932,3.091580391,0.2939796448,3.143362999,
194,0.969824135,-0.1062406301,2.465373993,0.1984434128,2.475628362,
195,0.974566374,-0.3290237188,2.123116493,0.1391191483,2.152959449,
196,0.979308614,-0.1357934475,2.083443642,0.04145240784,2.088275741,
197,0.984050801,0.1262345314,1.764741898,-0.1950397491,1.779968996,
198,0.988793041,0.2717084885,1.045244694,-0.6347799301,1.252720053,
199,0.99353528,0.2660442591,0.3130965233,-1.070104122,1.146268648,
200,0.998277468,0.2088034153,-0.3201208115,-1.058013916,1.124930952,
201,1.003019707,-0.01362705231,-0.8484706879,-0.8884725571,1.228605587,
202,1.007761947,-0.2927212715,-1.194675446,-0.6783924103,1.404689085,
203,1.012504187,-0.3781597614,-1.288919926,-0.5418858528,1.448433518,
204,1.017246374,-0.2331711054,-1.11395669,-0.4664077759,1.229961172,
205,1.021988614,0.06472194195,-0.8527002335,-0.4251613617,0.9550124614,
206,1.026730853,0.4316072464,-0.5440130234,-0.3557863235,0.7802684748,
207,1.031473093,0.7292246819,-0.3196940422,-0.2199287415,0.8260396895,
208,1.03621528,0.7978315353,-0.1966786385,-0.08671474457,0.8262790646,
209,1.04095752,0.6036918163,-0.1107902527,0.02722835541,0.6143774675,
210,1.04569976,0.3800246716,-0.0743227005,0.08621692657,0.3967064068,
211,1.050441999,0.1403797865,-0.1373038292,0.02370452881,0.1977896121,
212,1.055184187,-0.08906042576,-0.2061805725,-0.1455631256,0.2676393309,
213,1.059926426,-0.3797525167,-0.2042784691,-0.3212280273,0.5377072739,
214,1.064668666,-0.9615519047,-0.07947015762,-0.4029741287,1.045603041,
215,1.069410853,-1.901968122,0.2652249336,-0.3381299973,1.949912535,
216,1.074153093,-2.616966724,0.8619055748,-0.2074794769,2.763049726,
217,1.078895332,-2.529698849,1.335078716,-0.07048130035,2.861254805,
218,1.08363752,-2.250440121,1.508933544,-0.1776371002,2.715311422,
219,1.08837976,-2.363636494,1.42808485,-0.5952262878,2.824977548,
220,1.093121999,-2.659923792,1.254030704,-1.163046837,3.162351266,
221,1.097864239,-2.983444452,1.117185593,-1.912107944,3.715535122,
222,1.102606426,-2.800440788,0.8107085228,-2.351081371,3.745303797,
223,1.107348666,-2.643251181,0.3042931557,-2.276613712,3.501762574,
224,1.112090905,-2.539804459,-0.3153920174,-2.04836607,3.278091269,
225,1.116833093,-1.717735052,-1.023665428,-2.091518879,2.893606027,
226,1.121575332,-0.8294816017,-1.71011281,-2.167013168,2.882441955,
227,1.126317572,0.1154046059,-2.247963428,-2.311358452,3.22630372,
228,1.13105976,0.4334969521,-2.399044752,-2.44149971,3.450254507,
229,1.135801999,0.1449201107,-2.093534708,-2.40236187,3.189863942,
230,1.140544239,-0.3402023315,-1.60138464,-1.878838539,2.49202822,
231,1.145286426,-3.389942169,-3.251859665,-1.145936966,4.83523223,
232,1.150028666,-3.367805004,-3.179368019,-0.7304477692,4.688714695,
233,1.154770905,-3.05308485,-2.758406162,-0.181804657,4.118638682,
234,1.159513145,-2.673647165,-2.166417837,0.4479589462,3.470219392,
235,1.164255332,-2.430641651,-1.439537287,1.199908257,3.069212645,
236,1.168997572,-2.064022303,-0.7892782688,1.448754311,2.6423545,
237,1.173739812,-1.385307074,-0.2748985291,1.123929977,1.804955258,
238,1.178481999,-0.6492881775,0.02879619598,0.5244998932,0.8351673463,
239,1.183224239,-0.1186516285,0.05009269714,0.02997970581,0.1322356609,
240,1.187966478,0.04779744148,-0.08454990387,-0.2884759903,0.3043873825,
241,1.192708666,0.05881476402,-0.4255037308,-0.5121116638,0.668409274,
242,1.197450905,-0.4419314861,-0.6326246262,-1.728100777,1.892577515,
243,1.202193145,-0.4552240372,-0.6967227459,-3.087300777,3.197511157,
244,1.206935332,-0.08457231522,-0.6118466854,-4.169122219,4.214627969,
245,1.211677572,0.4181249142,-0.2537870407,-4.591931343,4.617907509,
246,1.216419812,1.08072114,0.04940891266,-4.618836403,4.743843288,
247,1.221161999,1.601866364,0.2776703835,-4.258583546,4.558356119,
248,1.225904239,1.850823402,0.4776930809,-3.884563446,4.329384611,
249,1.230646478,1.859193444,0.5009021759,-3.547004223,4.035931393,
250,1.235388666,1.52229166,0.2178778648,-2.964168549,3.339331946,
251,1.240130905,0.2961961031,-0.2754278183,-1.393838882,1.451337123,
252,1.244873145,-1.469925761,-1.051969767,1.726198196,2.499416401,
253,1.249615332,-3.365500927,-2.011380911,3.996466637,5.598570821,
254,1.254357572,-4.89907074,-2.577935457,4.405755997,7.075120581,
255,1.259099812,-5.292187691,-2.664067745,3.024417877,6.652188437,
256,1.263841999,-5.816672802,-2.430096865,0.8178501129,6.356723375,
257,1.268584239,-6.128726959,-2.395872116,-0.1446123123,6.581976151,
258,1.273326478,-5.852653503,-2.173516512,-0.4666509628,6.260630174,
259,1.278068666,-5.065114498,-1.936968088,-0.6181206703,5.457957806,
260,1.282810905,-4.571592808,-2.142767906,-0.9122877121,5.130612436,
261,1.287553093,-4.189841747,-2.553871632,-1.277543545,5.070419281,
262,1.292295332,-3.458894014,-2.872723341,-1.49684,4.738883538,
263,1.297037572,-2.696824551,-3.027485847,-1.678404808,4.388117582,
264,1.30177976,-2.170740604,-2.494099617,-1.805514336,3.767297398,
265,1.306521999,-1.887268543,-2.550486088,-1.264523506,3.415520683,
266,1.311264239,-1.760659814,-2.805381775,-0.6201701164,3.369673702,
267,1.316006426,-1.702192068,-3.064465046,-0.08923912048,3.506617669,
268,1.320748666,-1.28768909,-2.680262804,0.3770675659,2.99735414,
269,1.325490905,-1.499478102,-2.648936749,0.5936727524,3.101249395,
270,1.330233093,-1.846147776,-2.676673651,0.3734846115,3.272970241,
271,1.334975332,-1.714478135,-2.450158119,-0.2341299057,2.999587788,
272,1.33971752,-1.341354847,-2.004106045,-1.218472481,2.701915811,
273,1.34445976,-1.042308927,-1.501002789,-2.275836468,2.918706717,
274,1.349201999,-0.7866124511,-1.13495636,-3.593495846,3.849687972,
275,1.353944187,-0.3650352359,-0.9631679058,-4.745562553,4.856058802,
276,1.358686426,0.5632333159,-0.7773821354,-4.541338921,4.641693004,
277,1.363428666,2.10784483,-0.408229351,-3.110446453,3.779489141,
278,1.368170853,3.28598237,-0.1753985882,-1.146947384,3.484814644,
279,1.372913093,4.225345135,0.200258255,0.9680871964,4.339451313,
280,1.377655332,5.06385088,0.5509941578,2.492566109,5.670896411,
281,1.38239752,5.475928307,0.7723813057,3.438598633,6.51201384,
282,1.38713976,5.34290123,0.8202164173,3.866297722,6.645871395,
283,1.391881947,4.729162216,0.7555077076,4.110204697,6.311065664,
284,1.396624187,3.786403179,0.5009875298,4.114499092,5.613995041,
285,1.401366426,2.649312019,0.04717612267,3.634792328,4.49808793,
286,1.406108614,1.567210674,-0.4596204758,2.828463554,3.266130181,
287,1.410850853,0.2583280802,-1.042681932,1.578044891,1.908964297,
288,1.415593041,-0.9733133316,-1.498808384,0.5061893463,1.857415696,
289,1.42033528,-1.969851494,-1.889899373,-0.3894691467,2.757484499,
290,1.42507752,-2.289117336,-1.981996059,-0.8082771301,3.133955724,
291,1.429819707,-1.789962292,-1.700766087,-0.3194856644,2.489707087,
292,1.434561947,-0.2829320431,-1.109146833,0.9141302109,1.464886098,
293,1.439304135,1.120279789,-0.6702280045,1.930846214,2.330750842,
294,1.444046374,2.221355915,-0.3748645782,2.449908257,3.328212135,
295,1.448788614,3.111648083,-0.2869632244,2.665816307,4.107466161,
296,1.453530801,3.599480152,-0.3734600544,2.578237534,4.443313916,
297,1.458273041,3.794549942,-0.5911982059,2.258001328,4.454962915,
298,1.463015228,3.690577507,-0.8613734245,1.787812233,4.19029821,
299,1.467757468,3.430520296,-1.220448852,1.312563896,3.870502407,
300,1.472499707,3.003018856,-1.662046313,0.8148450851,3.527675256,
301,1.477241895,2.357418299,-2.168290854,0.3709278107,3.224359425,
302,1.481984135,1.513815641,-2.523350954,-0.1288671494,2.945427741,
303,1.486726322,0.7620644569,-2.627151251,-0.3665218353,2.759892061,
304,1.491468562,0.2275052071,-2.53319335,-0.282910347,2.559075112,
305,1.496210749,-0.01205134392,-2.338055372,0.04480457306,2.338515685,
306,1.500952989,0.1028702259,-2.236011267,0.6444101334,2.329290254,
307,1.505695228,0.4293427467,-2.310951948,1.19258213,2.635732581,
308,1.510437416,-3.060401678,-2.319531441,3.543473244,5.225178195,
309,1.515179655,-8.569494247,-4.317769051,4.31008625,10.5193253,
310,1.519921843,-5.753715038,-5.805817604,6.855441093,10.66816889,
311,1.524664082,-5.092414856,-5.163162231,6.413966179,9.681420115,
312,1.529406322,-1.475181699,-4.458187103,3.291505814,5.734597092,
313,1.53414851,2.733972073,-2.515018463,1.809082031,4.131912264,
314,1.538890749,3.077894449,-1.156450391,2.130324364,3.917791934,
315,1.543632937,1.328048706,-1.045324802,1.365893364,2.173035202,
316,1.548375176,-0.4222562313,-1.453787565,-0.6491661072,1.647184035,
317,1.553117364,-1.352731705,-1.981810212,-1.332601547,2.744682434,
318,1.557859603,-1.028799057,-2.249079943,0.06393527985,2.474040381,
319,1.562601843,-0.7494263649,-2.812335014,1.48775959,3.268684247,
320,1.56734403,-0.4917759895,-3.445459604,2.455198288,4.25922929,
321,1.57208627,-0.3941283226,-3.735104084,3.747419357,5.305609436,
322,1.576828457,-0.5341000557,-3.642926693,4.720075607,5.986258556,
323,1.581570697,-0.5728878975,-3.329295158,4.77161026,5.846423802,
324,1.586312885,-0.3292536736,-3.051914215,4.372254372,5.342208967,
325,1.591055124,-0.2106785774,-2.897969484,3.337337494,4.424978434,
326,1.595797364,1.316510201,-2.584164619,2.749667168,3.99647037,
327,1.600539551,2.559683323,-2.479430676,2.040364265,4.10641468,
328,1.605281791,3.398271084,-2.421049118,1.315861702,4.375067681,
329,1.610023978,4.145084858,-2.343650341,1.040021896,4.874019998,
330,1.614766218,5.063628674,-2.006152391,1.119564056,5.560432217,
331,1.619508405,5.484341145,-1.687203765,0.8413362503,5.7993535,
332,1.624250645,5.244338989,-1.40312767,0.5533914566,5.456931445,
333,1.628992832,5.011405468,-1.074582696,0.3941116333,5.140451022,
334,1.633735072,4.956807137,-0.8943907022,0.2808971405,5.044677881,
335,1.63847726,5.151494026,-0.9734333754,0.08820343018,5.243399955,
336,1.643219499,5.404001713,-1.18092823,-0.5754804611,5.561385058,
337,1.647961739,5.36043787,-1.375063658,-1.111886024,5.64458898,
338,1.652703926,4.364852428,-1.344829559,0.7955980301,4.63610607,
339,1.657446166,3.390935421,-1.47462368,1.595305443,4.027152528,
340,1.662188353,3.363816261,-1.90941596,-0.0126209259,3.867982476,
341,1.666930593,3.074088097,-2.067571402,-0.2239227295,3.711470129,
342,1.67167278,2.67115736,-1.657114983,0.5143079758,3.185219679,
343,1.67641502,2.508738995,-0.9613013864,1.658808708,3.157454359,
344,1.681157207,2.77573967,-0.4623051882,1.891498566,3.39060815,
345,1.685899447,3.249310017,-0.3847980201,1.84031868,3.754045544,
346,1.690641635,3.559322834,-0.4205858707,2.057374954,4.132609734,
347,1.695383874,3.583721161,-0.3982209265,2.167519569,4.207110451,
348,1.700126062,3.31110239,-0.1865139008,1.978871346,3.861880148,
349,1.704868301,2.863130569,-0.05372810364,2.04893589,3.521156294,
350,1.709610541,1.362023115,-0.3652603626,3.355678558,3.639931412,
351,1.714352728,0.6045763493,-0.5778566599,2.682687759,2.810025711,
352,1.719094968,0.8494153023,-0.6357289553,0.7463626862,1.29719502,
353,1.723837155,0.9411597252,-0.7640123963,-0.3575983047,1.263872271,
354,1.728579395,0.6384592056,-0.7258356214,-1.913611889,2.143916502,
355,1.733321582,0.001579523087,-0.5234085321,-3.233029366,3.275124099,
356,1.73806377,-0.4472844601,-0.2959185839,-4.067531586,4.102736209,
357,1.74280601,-0.6926939487,-0.08459562063,-4.444329739,4.498782963,
358,1.747548249,-0.4935498238,-0.03550112247,-4.740971088,4.766724097,
359,1.752290437,0.5719487667,0.184700489,-5.366125584,5.399679939,
360,1.757032676,1.280935526,0.4140329957,-5.217707634,5.388570506,
361,1.761774864,1.223168135,0.6202270985,-3.843378067,4.080732398,
362,1.766517103,1.391794443,0.651697278,-2.459277153,2.899973315,
363,1.771259291,2.572337151,0.7121780515,-1.067993164,2.874843542,
364,1.77600153,4.125770569,0.2759142518,-0.2726659775,4.143966481,
365,1.780743718,-5.3980937,-2.164064407,4.895177841,7.601668005,
366,1.785485957,-14.84896278,-3.936846018,15.02403736,21.48748824,
367,1.790228145,-11.7116127,-2.246065855,12.2049675,17.06364309,
368,1.794970385,-2.018321037,-0.0007730722427,1.597817421,2.574226276,
369,1.799712572,3.098691225,2.087601662,-5.223223686,6.421996082,
370,1.804454812,3.621642113,3.358050823,-9.317107201,10.54520192,
371,1.809196999,1.927377462,3.279442072,-10.81567097,11.46508886,
372,1.813939239,-0.1254174709,1.368088722,-10.28715706,10.3784872,
373,1.818681426,-1.764301777,-1.441945791,-8.235193253,8.544610953,
374,1.823423666,-3.333793402,-3.243254185,-4.719943523,6.626518167,
375,1.828165853,-4.947305202,-3.807264805,-0.09390640259,6.243389502,
376,1.832908041,-5.899290085,-3.703368425,3.997460365,8.030955769,
377,1.83765028,-3.531699181,-3.059639215,11.67309761,12.57360326,
378,1.842392468,0.3380343914,-1.227964282,6.492495537,6.616242274,
379,1.847134707,2.098869801,0.577670455,-0.6480207443,2.271318665,
380,1.851876895,3.992533684,0.7778444886,2.831880569,4.956300518,
381,1.856619135,3.844440937,-0.8692945838,4.861315727,6.258417515,
382,1.861361322,3.927745819,-3.750478268,11.46453285,12.68577108,
383,1.866103562,0.8689479828,-5.401571751,6.676046371,8.631433434,
384,1.870845749,-0.6513605118,-5.662107944,7.630731583,9.524274323,
385,1.875587989,0.7085318565,-4.758849144,7.673167229,9.056829351,
386,1.880330176,-3.232922316,-3.80143261,-0.5427742004,5.019689275,
387,1.885072416,-5.597671986,-2.674658298,-3.076117992,6.9246105,
388,1.889814603,-3.89203763,-1.558043003,-2.160529137,4.716284667,
389,1.894556843,-1.972770095,-1.394769192,-1.908734322,3.079037131,
390,1.89929903,-0.4005527496,-1.720163584,-2.859942913,3.361350729,
391,1.904041218,0.9266245365,-1.57511425,-3.737051487,4.159948527,
392,1.908783457,1.208334208,-1.165382624,-4.903127193,5.182551929,
393,1.913525645,0.987963438,-0.710087955,-5.875746727,6.000391342,
394,1.918267885,0.8783891201,-0.432980001,-6.591222763,6.663576865,
395,1.923010072,-0.7604472637,0.0662021637,-5.898153305,5.947341858,
396,1.927752312,-1.950946093,1.091807485,-5.540184975,5.974268473,
397,1.932494499,-2.335581779,1.439031363,-3.502639771,4.449071687,
398,1.937236739,-2.323249817,1.555790186,-1.896245003,3.378419442,
399,1.941978926,-1.353252888,1.442346096,-2.80547905,3.43254546,
400,1.946721166,-0.03871774673,1.20017767,-3.377748489,3.584844538,
401,1.951463353,0.6568350792,0.7586294413,-3.714200974,3.847367908,
402,1.956205541,0.383988142,0.4597896338,-3.902930737,3.948635427,
403,1.96094778,-0.6363916397,0.1938757896,-3.855512142,3.912487191,
404,1.965689968,-1.734127641,-0.2441766262,-4.451614857,4.783690597,
405,1.970432207,-2.172109604,-0.5705126524,-5.607132912,6.040155984,
406,1.975174395,-1.493596077,-0.4304351807,-6.360215664,6.547400017,
407,1.979916635,0.4101932049,0.3626270294,-7.414442062,7.43462897,
408,1.984658822,2.733411551,1.501507759,-8.188173294,8.761977297,
409,1.98940101,4.063995361,2.697976351,-7.888852596,9.275188945,
410,1.994143249,4.007699013,4.130567074,-6.230308056,8.481743583,
411,1.998885437,3.93998003,5.542591095,-4.58184433,8.199820495,
412,2.003627676,3.389501095,6.278667927,-2.900785446,7.702268809,
413,2.008369864,1.64056325,6.158961773,-1.485419273,6.544518952,
414,2.013112103,-0.2253015041,5.962176323,-0.2427892685,5.971369516,
415,2.017854291,-1.803872943,5.868414879,0.8333749771,6.195705338,
416,2.022596478,-2.866149187,5.781331062,1.475954056,6.619444115,
417,2.027338718,-3.269925594,5.682001114,1.504541397,6.726157511,
418,2.032080905,-3.455664158,5.540364265,1.203290939,6.639665658,
419,2.036823145,-3.738515139,5.38909626,0.6382637024,6.589858458,
420,2.041565332,-3.56082654,5.634987831,0.01152229309,6.665786245,
421,2.04630752,-3.30036068,5.405002594,-1.623818874,6.537830022,
422,2.05104976,-3.379818439,5.202043533,-2.826069832,6.81697149,
423,2.055791947,-3.937492371,4.950422287,-3.611455917,7.283758702,
424,2.060534187,-4.068087578,4.396112919,-4.225380421,7.330005801,
425,2.065276374,-4.415361404,3.806341648,-4.760582447,7.526406733,
426,2.070018562,-4.865350246,3.298659325,-4.850413322,7.620977349,
427,2.074760801,-5.001170158,3.063333988,-4.504722118,7.395149724,
428,2.079502989,-5.110660553,3.034077406,-4.034417152,7.183383517,
429,2.084245228,-5.449226379,3.001407862,-3.355757236,7.068495166,
430,2.088987416,-5.786088943,2.94293189,-2.6004529,6.992998546,
431,2.093729603,-5.809205532,3.008179903,-1.725728512,6.765659919,
432,2.098471843,-5.660523415,3.143255472,-0.7583723068,6.51894998,
433,2.10321403,-5.584129333,3.222949743,0.3153171539,6.45517857,
434,2.10795627,-5.604183197,3.368714333,1.267803192,6.66051278,
435,2.112698457,-5.482139587,3.534741402,2.161026955,6.8715565,
436,2.117440645,-5.123208523,3.720985651,3.020751953,7.015550024,
437,2.122182885,-4.815211773,3.915796041,3.593128204,7.17149171,
438,2.126925072,-4.653905392,4.086346626,4.08550024,7.419459304,
439,2.131667312,-4.677876472,4.197569847,4.501738548,7.730961833,
440,2.136409499,-4.807324886,4.207621574,4.707556248,7.935712804,
441,2.141151687,-5.054080963,4.143920898,4.896578312,8.166535003,
442,2.145893926,-5.355759621,3.99081111,5.190192699,8.458654425,
443,2.150636114,-5.06668663,3.861094713,5.322384834,8.301032834,
444,2.155378301,-4.577002048,3.80741334,5.350315094,8.004449743,
445,2.160120541,-4.699856758,3.832286596,5.479717255,8.173272007,
446,2.164862728,-4.584215164,3.897279978,5.600865364,8.220310987,
447,2.169604968,-4.336302757,3.81391573,5.615979671,8.055352411,
448,2.174347155,-4.110060692,3.542354107,5.501598358,7.727124692,
449,2.179089343,-3.677257538,3.250663757,5.423266888,7.314428317,
450,2.183831582,-3.285241842,2.939388275,5.402598858,6.972868263,
451,2.18857377,-3.001521111,2.571021557,5.468091488,6.746799637,
452,2.193315957,-3.03863883,2.019824028,5.59515667,6.679730025,
453,2.198058197,-3.312736034,1.32992506,5.850161552,6.853270087,
454,2.202800385,-3.594920635,0.6502027512,6.26875639,7.255585756,
455,2.207542572,-3.752411842,0.09757804871,6.827254772,7.791118266,
456,2.212284812,-3.700365782,-0.2690300941,7.521411419,8.386698626,
457,2.217026999,-3.384776592,-0.5246005058,8.181938171,8.869950987,
458,2.221769187,-2.954063654,-0.6506299973,8.555696487,9.074676515,
459,2.226511426,-2.307111502,-0.7453455925,8.797742844,9.125709982,
460,2.231253614,-2.035070419,-0.8851165771,8.586965561,8.869099194,
461,2.235995853,-1.250906706,-0.8483738899,8.481555939,8.615178291,
462,2.240738041,-1.165282965,-1.380631924,8.190725327,8.387610522,
463,2.245480228,-0.8646256924,-1.501133919,7.366024971,7.566987809,
464,2.250222468,1.821317673,-0.4945211411,8.162221909,8.377566216,
465,2.254964655,4.251239777,-0.3679027557,11.12494469,11.91523337,
466,2.259706843,4.101558208,-1.46394062,11.29738426,12.10771626,
467,2.264449082,3.332539082,-1.919644356,9.765812874,10.49580641,
468,2.26919127,2.286500454,-1.916780472,8.768979073,9.262673787,
469,2.273933457,1.47458601,-1.805251598,8.57595253,8.887086082,
470,2.278675697,1.3020854,-1.889374256,8.256127357,8.569060649,
471,2.283417885,1.548426628,-2.262685299,7.286259174,7.785046085,
472,2.288160072,1.578275681,-2.932298183,6.094355583,6.944817977,
473,2.292902312,1.316609383,-3.831320524,4.890143394,6.350273982,
474,2.297644499,0.9273600578,-4.785944939,3.983767509,6.295686555,
475,2.302386739,0.4091057777,-5.654528141,3.365489483,6.592994425,
476,2.307128926,0.0856127739,-6.243836403,2.97596693,6.917311743,
477,2.311871114,-0.6322569847,-6.707593918,2.739147663,7.272860165,
478,2.316613301,-1.300316811,-6.922339916,2.641588688,7.522473298,
479,2.321355541,-1.632419348,-6.966047764,2.643737793,7.627579163,
480,2.326097728,-1.495217562,-6.869327545,2.720591545,7.538232872,
481,2.330839968,-0.98919487,-6.600844383,2.863761902,7.262973585,
482,2.335582155,-0.2615809441,-6.30124712,2.978179932,6.974503248,
483,2.340324343,0.5294389725,-5.881407738,3.075873852,6.658247709,
484,2.345066582,1.513246059,-5.256873608,3.010489941,6.244011807,
485,2.34980877,2.505776882,-4.527080536,2.745760441,5.857693775,
486,2.354550957,3.162442207,-3.805196047,2.369903564,5.486073329,
487,2.359293197,3.501433372,-3.118169308,2.0625,5.122198917,
488,2.364035385,3.726209164,-2.447406292,1.702339172,4.772042639,
489,2.368777572,3.914960861,-1.838771343,1.281049728,4.510996232,
490,2.373519812,3.978032112,-1.316223145,0.7353010178,4.254156842,
491,2.378261999,3.940840721,-1.015464306,0.1637310982,4.072861552,
492,2.383004187,3.914904594,-0.9067153931,-0.4766154289,4.046699032,
493,2.387746426,3.748475075,-0.9431753159,-1.216859341,4.05233164,
494,2.392488614,3.447370529,-1.087432861,-1.982922554,4.12296685,
495,2.397230801,2.981417656,-1.249741077,-2.574047565,4.13236311,
496,2.401973041,2.499810457,-1.321548939,-2.988166094,4.113961658,
497,2.406715228,2.008278847,-1.400424957,-3.218173981,4.043639172,
498,2.411457416,1.392920017,-1.426045418,-3.314240217,3.867559945,
499,2.416199655,0.7078664303,-1.491416931,-3.273916483,3.666596308,
500,2.420941843,0.07945275307,-1.546421051,-2.960922003,3.341375452,
501,2.42568403,-0.2842512131,-1.484039307,-2.521290302,2.939400654,
502,2.43042627,-0.3179039955,-1.379463673,-2.017360687,2.464493278,
503,2.435168457,-0.1131503582,-1.128822327,-1.425570965,1.821893363,
504,2.439910645,0.1363606453,-0.7744479179,-0.7703304291,1.100805511,
505,2.444652885,0.4997973442,-0.3108386993,-0.1474590302,0.6067637496,
506,2.449395072,0.8926672935,0.203189373,0.3093214035,0.9663439082,
507,2.45413726,1.208528519,0.6711163521,0.5597276688,1.491386403,
508,2.458879499,1.374495983,1.025847435,0.7303800583,1.86415053,
509,2.463621687,1.453825951,1.20809412,0.6414837837,1.996146974,
510,2.468363874,1.487410069,1.254737854,0.2331161499,1.959872173,
511,2.473106114,1.59224081,1.205007553,-0.3775596619,2.032197161,
512,2.477848301,1.724592209,1.250939846,-0.9490695,2.332338248,
513,2.482590489,1.786251068,1.366558075,-1.309760094,2.602622784,
514,2.487332728,1.722099304,1.463768005,-1.579714298,2.757487997,
515,2.492074916,1.595933914,1.545287609,-1.863891602,2.899829436,
516,2.496817103,1.779017448,1.692748547,-2.453076839,3.471006584,
517,2.501559343,1.864167213,1.724799633,-2.699226379,3.706194304,
518,2.50630153,1.996471882,1.697206974,-3.207527161,4.141816265,
519,2.511043718,1.742402554,1.524906158,-3.683744192,4.351008702,
520,2.515785957,1.663589001,1.297134399,-3.972726822,4.498071188,
521,2.520528145,1.577321053,1.021317482,-3.869007349,4.301191575,
522,2.525270332,1.296009064,0.6858415604,-3.721669674,4.000105411,
523,2.530012572,1.065495968,0.3532853127,-3.607160807,3.777790526,
524,2.53475476,1.050927162,0.09549474716,-3.296396255,3.461184107,
525,2.539496947,1.013616562,-0.1499633789,-2.754168749,2.938597122,
526,2.544239187,0.9400196075,-0.3402733803,-2.119811058,2.343719641,
527,2.548981374,0.8307890892,-0.4614543915,-1.513094425,1.786786335,
528,2.553723562,0.6650214195,-0.6165966988,-1.051190376,1.388324956,
529,2.558465801,0.5225605965,-0.7533349991,-0.7436938286,1.180535348,
530,2.563207989,0.4499688148,-0.7835798264,-0.5741081238,1.070546317,
531,2.567950228,0.4004912376,-0.6626820564,-0.4779253006,0.9099194098,
532,2.572692416,0.3893575668,-0.4203686714,-0.1992511749,0.6066384141,
533,2.577434603,0.2262225151,-0.122171402,0.2425584793,0.3534644164,
534,2.582176843,-0.1050238609,0.2238354683,0.7329888344,0.7735663899,
535,2.58691903,-0.5212826729,0.5953259468,1.215833187,1.450654661,
536,2.591661218,-0.9133090973,0.7485103607,1.627145767,2.010473729,
537,2.596403457,-0.9844403267,0.4455919266,1.899172783,2.185070292,
538,2.601145645,-0.1454515457,0.3522500992,1.993591785,2.029690738,
539,2.605887832,0.5681467056,0.5525898933,2.30825758,2.44053259,
540,2.610630072,0.7282533646,0.8211460114,2.48981142,2.720991482,
541,2.61537226,0.4184145927,1.048363686,2.629668713,2.86169438,
542,2.620114447,-0.1034946442,1.202302456,2.52662611,2.800014614,
543,2.624856687,-0.5945427418,1.399532318,2.476696491,2.906234211,
544,2.629598874,-0.9810421467,1.44487381,2.622619152,3.150910224,
545,2.634341062,-1.011328697,1.525114059,2.855778217,3.391788297,
546,2.639083301,-0.8642599583,1.828566551,3.149456501,3.742950328,
547,2.643825489,-0.8238461018,2.47606802,3.465497971,4.33812303,
548,2.648567728,-0.9225053787,3.18720293,3.684042931,4.957968436,
549,2.653309916,-0.9151148796,3.725366592,3.670639515,5.309367753,
550,2.658052103,-0.7772922516,4.155856133,3.386591911,5.41704054,
551,2.662794343,-0.5829861164,4.436029911,2.851123333,5.305387681,
552,2.66753653,-0.1958489418,4.604505062,2.095538139,5.062717034,
553,2.672278718,0.3160095215,4.977394581,1.479595184,5.202261118,
554,2.677020957,0.6744470596,5.306773663,0.9698200226,5.43666041,
555,2.681763145,1.077757359,5.45757246,0.0131316185,5.562987554,
556,2.686505385,1.019816875,5.376304626,-0.8615055084,5.539573055,
557,2.691247572,1.00766468,5.200860023,-1.746893406,5.578169024,
558,2.69598976,0.5930547714,4.538262844,-2.713619947,5.320834222,
559,2.700731999,0.4327600002,3.961283207,-3.326783657,5.191005236,
560,2.705474187,0.5885982513,3.654232502,-3.848237514,5.339362794,
561,2.710216374,0.4407706261,3.327554703,-4.113287926,5.309052326,
562,2.714958614,0.101944685,2.985625267,-3.823117733,4.851863575,
563,2.719700801,-0.1860935688,2.589603901,-3.324630022,4.218274999,
564,2.724442989,-0.5933532715,2.210523605,-2.767767191,3.591520282,
565,2.729185228,-1.094228506,1.88570118,-2.165446997,3.072843253,
566,2.733927416,-1.562104702,1.668739796,-1.363283157,2.661466621,
567,2.738669655,-1.843337536,1.452968597,-0.513604641,2.402665342,
568,2.743411843,-1.889074326,1.213145256,0.2670207024,2.26088993,
569,2.74815403,-1.581435919,1.048204422,0.9772162437,2.134156429,
570,2.75289627,-1.153620005,0.9735202789,1.562496662,2.172550728,
571,2.757638457,-0.7805562019,0.858979702,2.065842152,2.369560699,
572,2.762380645,-0.4917180538,0.7349610329,2.504130363,2.655677548,
573,2.767122885,-0.4136061668,0.6126461029,2.930966854,3.022742465,
574,2.771865072,-0.4460878372,0.4175314903,3.318575859,3.374355144,
575,2.776607312,-0.3529174328,0.1639585495,3.576763153,3.597869894,
576,2.781349499,-0.110419035,-0.08794593811,3.743834019,3.746494363,
577,2.786091687,0.09013295174,-0.3446087837,3.840708256,3.857190567,
578,2.790833926,0.02400755882,-0.5665740967,3.761276722,3.803785634,
579,2.795576114,-0.1032233238,-0.6856584549,3.652939796,3.718165102,
580,2.800318353,-0.1939685345,-0.7319493294,3.603288174,3.681991211,
581,2.805060541,-0.1362226009,-0.671104908,3.455974579,3.523166003,
582,2.809802728,0.1271286011,-0.5691995621,3.195745945,3.248529201,
583,2.814544968,0.5268073082,-0.4089846611,2.92237711,2.997512696,
584,2.819287155,0.93673563,-0.1565532684,2.403115273,2.583978634,
585,2.824029395,1.020521879,0.07869958878,1.871591091,2.133192852,
586,2.828771582,0.8378329277,0.2023539543,1.216928005,1.491249445,
587,2.83351377,0.7946019173,0.4092297554,0.2019405365,0.9163193657,
588,2.83825601,0.4773445129,0.3251166344,-0.7573285103,0.9524206437,
589,2.842998197,0.0466902256,0.06380033493,-1.644462585,1.646361945,
590,2.847740437,-0.1884274483,-0.2349705696,-2.746701241,2.763165536,
591,2.852482624,-0.4258137941,-0.6209578514,-3.640654802,3.717697329,
592,2.857224864,-0.5992574692,-0.8982658386,-4.206773281,4.343147761,
593,2.861967051,-0.7188640833,-1.158858776,-4.439665794,4.64438926,
594,2.866709239,-0.8046656847,-1.394746304,-4.299687862,4.591309163,
595,2.871451478,-0.8191130161,-1.617662907,-3.87097311,4.274600827,
596,2.876193666,-0.72663486,-1.796196461,-3.233063936,3.769220392,
597,2.880935905,-0.8207857609,-2.220776558,-3.292874813,4.055682719,
598,2.885678093,-0.8184453249,-2.906011105,-3.699243307,4.774846001,
599,2.890420332,-0.2014117241,-3.135602474,-3.134155035,4.437960944,
600,2.89516252,0.2031191587,-3.18170023,-1.995613575,3.761242785,
601,2.899904707,0.217944026,-3.110280991,-0.8240690231,3.224970883,
602,2.904646947,0.1330425739,-2.960539818,0.02742242813,2.963654556,
603,2.909389135,0.1279045343,-2.93824625,0.5307631493,2.988538124,
604,2.914131374,0.1717840433,-3.064377308,0.8222813606,3.177430515,
605,2.918873562,0.1625168324,-3.235248804,1.040063858,3.402202136,
606,2.923615749,0.06708014011,-3.368697405,1.274103165,3.602216099,
607,2.928357989,-0.08304846287,-3.39477396,1.542712212,3.729791986,
608,2.933100228,-0.05245828629,-3.085745335,1.749018192,3.547342777,
609,2.937842416,0.07103991508,-2.336044312,1.538079262,2.797827284,
610,2.942584603,-0.0192565918,-1.620472431,0.5098900795,1.698908358,
611,2.947326843,-0.1746402979,-1.222333431,-0.1905674934,1.249365527,
612,2.95206903,0.03248286247,-1.019052505,-0.2707061768,1.05489572,
613,2.95681127,1.521447182,-0.3487086296,0.2435612679,1.579785215,
614,2.961553457,2.206236124,0.4462366104,0.2060751915,2.260325625,
615,2.966295697,-0.07298374176,0.00424861908,-1.58887434,1.590555358,
616,2.971037885,2.108851671,1.276420593,1.047860622,2.678528847,
617,2.975780124,1.876109838,1.601285934,2.390633106,3.434971822,
618,2.980522312,-1.479155898,0.7660593987,-1.675776005,2.362831858,
619,2.985264499,-0.3730397224,1.059577465,-1.5443573,1.909686495,
620,2.990006739,3.151445866,2.337380886,3.013518333,4.947348097,
621,2.994748926,2.543932915,3.021044731,6.31106329,7.444986621,
622,2.999491166,-2.845573664,0.8549900055,-1.258072853,3.226615051,
623,3.004233353,-3.188331604,0.3619279861,-6.702824593,7.431305929,
624,3.008975593,-1.647029281,0.4106378555,-9.279527664,9.433502137,
625,3.01371778,-1.733504772,-0.09009599686,-8.912568092,9.080034476,
626,3.01846002,-2.540041208,-0.05918884277,-6.582378864,7.055708623,
627,3.023202207,-2.458210707,0.3413472176,-4.241939068,4.914607294,
628,3.027944447,-1.912044287,0.6485910416,-2.335175753,3.087009797,
629,3.032686635,-1.463294506,0.7114701271,-0.48371315,1.697468399,
630,3.037428874,-1.309840798,0.599629879,1.242564201,1.902420748,
631,3.042171062,-1.403966427,0.2805838585,2.507934093,2.887833521,
632,3.046913301,-1.30479002,-0.04567909241,3.270979404,3.52191281,
633,3.051655489,-0.9193981886,-0.2742452621,3.39883709,3.531656418,
634,3.056397728,-0.6773341894,-0.6675662994,2.97585392,3.124121144,
635,3.061139916,-0.4843571186,-1.505752087,1.744308949,2.354677233,
636,3.065882155,-0.6003732681,-2.245639324,0.2017178535,2.333245407,
637,3.070624343,-1.192090154,-2.624675274,-0.6825046539,2.962399674,
638,3.075366582,-1.394311428,-2.632684231,-0.898396492,3.111630903,
639,3.08010877,-0.9379422665,-2.577737331,-1.212677002,2.999175046,
640,3.08485101,-0.112398386,-2.368046761,-1.686406612,2.909337746,
641,3.089593197,0.06764602661,-2.045926571,-1.871694088,2.773739403,
642,3.094335437,-0.002993583679,-1.71865797,-1.748711109,2.451894109,
643,3.099077624,0.1363840103,-1.372075081,-1.330260277,1.915928764,
644,3.103819864,0.3374328613,-1.135865688,-0.8098416328,1.435233524,
645,3.108562051,0.3944051266,-0.9722232819,-0.1486253738,1.059652309,
646,3.113304291,0.2041928768,-0.8431258202,0.2713375092,0.9089444006,
647,3.118046478,-0.09240460396,-0.690993309,0.3835840225,0.7957053891,
648,3.122788718,-0.5122730732,-0.6157374382,0.4630260468,0.9251753425,
649,3.127530905,-0.8691830635,-0.6573843956,0.492609024,1.195950288,
650,3.132273145,-1.077070713,-0.6743311882,0.6344919205,1.420346391,
651,3.137015332,-1.099313378,-0.4969353676,0.9024710655,1.506614977,
652,3.141757572,-0.97526443,-0.07107877731,1.172009468,1.526367942,
653,3.146499812,-0.7801756859,0.410759449,1.498404026,1.73856609,
654,3.151241999,-0.4629085064,0.8447599411,1.733937263,1.983542809,
655,3.155984239,-0.09438276291,1.24456358,1.78350544,2.176864319,
656,3.160726426,0.1159799099,1.647943974,1.807587624,2.448784126,
657,3.165468666,0.02792143822,2.066396713,1.746634483,2.705828339,
658,3.170210853,-0.01392817497,2.313149929,1.718197346,2.881502856,
659,3.174953093,0.1237201691,2.385678291,1.689414978,2.925899957,
660,3.17969528,0.2206659317,2.28405571,1.787153721,2.908525805,
661,3.18443752,0.1909840107,1.984706879,1.872423649,2.735234287,
662,3.189179707,0.2404007912,1.552536488,1.894969463,2.461518099,
663,3.193921947,0.2421720028,0.9685759544,2.103498459,2.328409849,
664,3.198664187,0.1866905689,0.3669095039,2.61015892,2.642424179,
665,3.203406374,0.4758274555,-0.3913292885,3.402755737,3.458077065,
666,3.208148614,0.33770895,-0.8478012085,5.744860649,5.816892478,
667,3.212890801,-0.3947956562,-0.5597801208,8.181507111,8.21013252,
668,3.217633041,-1.244128704,0.01686191559,8.272146225,8.365198367,
669,3.222375228,-1.08297956,0.1319022179,6.294882298,6.388723351,
670,3.227117468,-0.9647080898,-0.2740039825,5.465651035,5.556894917,
671,3.231859707,-1.387723446,-0.5898022652,4.211626053,4.473414477,
672,3.236601895,-1.228078485,-0.4874081612,1.353744984,1.891657728,
673,3.241344135,-0.8683269024,-0.1921405792,-1.016019344,1.350261056,
674,3.246086322,-1.170909286,0.1104083061,-1.476521969,1.887679971,
675,3.250828562,-1.30631268,0.427277565,-1.503661156,2.037158758,
676,3.255570749,-1.094631791,0.5327248573,-1.686644554,2.080092398,
677,3.260312989,-0.864951849,0.366622448,-1.966554165,2.179424007,
678,3.265055228,-1.145247579,-0.03286075592,-2.604683876,2.845531574,
679,3.269797416,-1.724487782,-0.5664019585,-3.110061884,3.600993503,
680,3.274539655,-2.141023159,-1.048323631,-2.913737297,3.764681612,
681,3.279281843,-1.86234808,-1.343781948,-2.515718699,3.406307512,
682,3.284024082,-1.168356657,-1.521813393,-1.938538551,2.727435608,
683,3.288766322,-0.4594552517,-1.589299679,-1.001900673,1.934108982,
684,3.29350851,0.6075401306,-1.311790466,-0.03579187393,1.446091386,
685,3.298250749,1.555566311,-0.6849684715,1.051124573,1.99845721,
686,3.302992937,1.90480876,-0.1221456528,1.634894848,2.51318466,
687,3.307735176,1.728990555,0.1518216133,1.577150345,2.34517832,
688,3.312477416,1.591746092,0.1691966057,0.7135829926,1.75256492,
689,3.317219603,1.681117296,0.07028627396,-0.8828024864,1.900114669,
690,3.321961843,1.892215252,-0.1189427376,-3.079465866,3.616315246,
691,3.326704082,1.977201223,-0.3220515251,-5.481547832,5.836129582,
692,3.33144627,1.99414897,-0.5200662613,-7.394461632,7.676272654,
693,3.33618851,2.290595531,-0.615582943,-8.185210228,8.521938554,
694,3.340930697,2.25719285,-0.4833312035,-8.430625916,8.740937132,
695,3.345672937,2.202090502,-0.2621598244,-8.071494102,8.370600181,
696,3.350415176,2.098157883,-0.2059421539,-7.480771065,7.772169221,
697,3.355157364,1.921144247,-0.6544189453,-5.82242918,6.166014996,
698,3.359899603,1.918124437,-1.060751438,-3.318027973,3.976644893,
699,3.364641843,1.832744122,-1.074958324,-1.958527088,2.88969112,
700,3.36938403,1.676216602,-0.7749848366,-1.35593605,2.291040412,
701,3.37412627,1.376341343,-0.5915408134,-1.174158573,1.903387607,
702,3.37886851,0.6643848419,-0.7006673813,-1.092276573,1.457878633,
703,3.383610697,-0.2282912731,-0.8720202446,-0.7058334351,1.144874251,
704,3.388352937,-0.572414875,-0.9427156448,-0.1324148178,1.110812883,
705,3.393095176,-0.5200695992,-0.8459115028,0.5025291443,1.112912485,
706,3.397837364,-0.5258872509,-0.6175990105,1.324090958,1.552804818,
707,3.402579603,-0.8319005966,-0.4827303886,2.211476326,2.411579311,
708,3.407321843,-1.317352057,-0.4340920448,3.015928268,3.319589683,
709,3.41206403,-1.265923977,-0.2879734039,3.861586094,4.07398323,
710,3.41680627,-0.694914341,0.007184028625,4.886308193,4.935480251,
711,3.42154851,-0.1652767658,0.3498668671,5.338978767,5.352982114,
712,3.426290697,-0.2108259201,0.6409864426,5.660978794,5.701051841,
713,3.431032937,-0.3883969784,1.32391119,7.329737186,7.458460986,
714,3.435775124,2.110087872,1.783397675,4.594769955,5.361426026,
715,3.440517364,3.07562995,1.595689774,1.941637516,3.971861237,
716,3.445259603,1.616580248,1.135147095,1.035360813,2.230215828,
717,3.450001843,-0.469111681,0.9191741943,1.022467613,1.452717106,
718,3.45474403,-1.59113431,1.055099964,0.3902916908,1.948659008,
719,3.45948627,-1.604058743,1.585181236,-0.9074192047,2.430887413,
720,3.46422851,-1.505041122,1.920151234,-2.660924911,3.610076305,
721,3.468970697,-3.028828144,1.356865883,-3.343312979,4.710905075,
722,3.473712937,-2.821628332,1.223474979,-4.760809898,5.667785137,
723,3.478455176,-1.009449959,1.316254616,-5.518452644,5.762363666,
724,3.483197364,0.7635440826,1.299568176,-6.249624252,6.4288164,
725,3.487939603,0.9991645813,0.7882709503,-6.147403717,6.277760223,
726,3.492681843,-0.6620240211,-0.5228824615,-4.74924469,4.823588602,
727,3.497424082,-1.382615566,-1.036640644,-3.300517797,3.725542559,
728,3.50216627,-0.7536332607,-0.9038419724,-1.803361416,2.153370799,
729,3.50690851,-0.01584744453,-0.4726324081,-0.5507502556,0.7259189891,
730,3.511650749,-0.1772994995,-0.0623998642,0.3232307434,0.3739077013,
731,3.516392937,-0.7176339626,0.1935834885,0.7264533043,1.039330301,
732,3.521135176,-0.9952116013,0.4308099747,0.996386528,1.472694632,
733,3.525877416,-0.6121311188,0.8106975555,1.452920914,1.772826617,
734,3.530619655,-0.2352859974,1.398519993,2.553219318,2.920641464,
735,3.535361843,-0.2939798832,1.843951225,3.569833279,4.028683399,
736,3.540104082,-0.3301570415,1.919530392,3.83806324,4.303990013,
737,3.544846322,0.5870540142,1.845337868,3.076384544,3.635112946,
738,3.549588562,1.924258232,1.752987385,1.414313793,2.962434475,
739,3.554330749,2.452259541,1.633245468,-0.5693826675,3.000877244,
740,3.559072989,1.926727057,1.283226967,-2.627942562,3.502146586,
741,3.563815228,1.543853521,1.060936928,-3.560121298,4.022876398,
742,3.568557416,1.678966045,0.9490990639,-3.391091585,3.901181636,
743,3.573299655,1.761490583,0.7663588524,-1.990412951,2.76620655,
744,3.578041895,1.653203964,0.111538887,-0.4064955711,1.706095812,
745,3.582784135,0.5513134003,-1.176221848,2.0748806,2.447973408,
746,3.587526374,0.1188154221,-2.514678001,3.160598278,4.040681134,
747,3.592268562,0.5626585484,-3.390507698,2.116670132,4.036386941,
748,3.597010801,0.1006183624,-4.090785503,1.522741795,4.366164525,
749,3.601753041,-0.6033856869,-4.094311237,1.765604496,4.499424189,
750,3.60649528,-0.1307365894,-2.941542625,1.385625362,3.254185415,
751,3.611237468,0.3726842403,-1.900563717,0.554295063,2.014517064,
752,3.615979707,0.9492206573,-1.371197701,-0.2155957222,1.681572034,
753,3.620721947,1.571881294,-1.001199245,-1.12631464,2.177566394,
754,3.625464187,1.736854315,-0.5335240364,-2.11726737,2.790005721,
755,3.630206374,1.667325735,0.07610750198,-2.898527622,3.344731654,
756,3.634948614,1.482395411,0.5323824883,-3.151170969,3.522897351,
757,3.639690853,1.318883181,0.7532362938,-3.78722477,4.080427577,
758,3.644433093,0.9518311024,0.3771467209,-4.791998386,4.900150062,
759,3.649175332,0.3849134445,-0.4361896515,-5.817008495,5.846024941,
760,3.65391752,-0.08335614204,-1.377403259,-6.494644642,6.639623258,
761,3.65865976,-0.2891206741,-2.140758514,-6.548968315,6.896044067,
762,3.663401999,-0.4142131805,-2.69164753,-5.893433571,6.492233686,
763,3.668144239,-0.6494693756,-3.072128773,-4.831412315,5.762146356,
764,3.672886478,-0.9955756664,-3.307242632,-3.650169611,5.025212724,
765,3.677628666,-1.571401596,-3.369184017,-2.305608511,4.374532492,
766,3.682370905,-1.977563143,-3.237546444,-0.8367199898,3.884914838,
767,3.687113145,-1.900222301,-3.193231106,0.06817245483,3.716479137,
768,3.691855385,-1.415505409,-2.959825754,0.5680456161,3.329699668,
769,3.696597624,-1.276906967,-2.658603668,1.318156719,3.230511106,
770,3.701339864,-1.615873575,-2.209833622,2.796732426,3.91358203,
771,3.706082051,-1.64124608,-1.636459351,4.139974117,4.744583606,
772,3.710824291,-1.43043685,-1.250027657,4.670151234,5.041728996,
773,3.71556653,-1.893722296,-1.518696785,4.508536816,5.120500784,
774,3.72030877,-2.637285233,-2.132401943,3.4168787,4.814298651,
775,3.72505101,-2.865756512,-2.701860428,1.598494053,4.250622707,
776,3.729793197,-3.019718409,-3.261196852,-0.02286148071,4.444617736,
777,3.734535437,-3.27196455,-3.610489845,-0.9637050629,4.966902092,
778,3.739277676,-3.55934,-3.576972246,-1.236944199,5.195542574,
779,3.744019916,-3.337687016,-3.122567177,-0.9600243568,4.670356213,
780,3.748762155,-3.572626591,-2.462485313,-0.07291412354,4.339678691,
781,3.753504395,-4.083847523,-2.074315548,0.9201126099,4.671959203,
782,3.758246635,-4.246482849,-1.563175201,2.570878506,5.204377925,
783,3.762988822,-4.328071594,-1.113451004,3.921693325,5.945725809,
784,3.767731062,-4.10212183,-0.5937166214,4.9810853,6.48005507,
785,3.772473301,-3.478580475,-0.1358242035,5.243439674,6.293856525,
786,3.777215541,-2.708207846,0.5706195831,5.176116467,5.869597782,
787,3.78195778,-0.3177709579,1.554811954,4.836366653,5.090074754,
788,3.78670002,2.952907562,3.197798729,3.462425709,5.561831674,
789,3.79144226,3.706298351,3.974588871,1.729161263,5.702981925,
790,3.796184447,2.696460247,3.52907753,1.29913044,4.627421093,
791,3.800926687,5.274791241,3.629508018,4.352550507,7.74218619,
792,3.805668926,1.901526928,3.255964279,5.633541107,6.778930111,
793,3.810411166,0.4836373329,3.706629753,1.788878918,4.144043554,
794,3.815153405,2.526313782,5.330657959,-1.298274517,6.040173203,
795,3.819895645,2.737344742,6.007974625,-0.7938013077,6.649732013,
796,3.824637885,2.545090675,6.13863802,4.843561649,8.223165615,
797,3.829380124,3.293095112,6.59388113,6.926933765,10.11465052,
798,3.834122364,3.760054588,7.491599083,3.477419376,9.074938724,
799,3.838864551,2.829045296,6.985061169,-0.5754227638,7.558153754,
800,3.843606791,2.156167507,5.743966103,-2.86309886,6.77049038,
801,3.84834903,2.087055206,4.767527103,-2.881388664,5.948740602,
802,3.85309127,2.640505791,4.158137798,-2.232065678,5.407818226,
803,3.85783351,3.13841629,3.838595867,-0.9328289032,5.045259637,
804,3.862575749,4.280601978,3.48415947,-0.8464746475,5.583855284,
805,3.867317989,5.427719593,3.040556431,-2.23051095,6.609107541,
806,3.872060228,5.482196331,2.552556515,-2.686795473,6.61731753,
807,3.876802468,4.994297504,2.007261753,-2.09783268,5.776937706,
808,3.881544707,4.721188545,1.652009487,-1.347282887,5.180147469,
809,3.886286895,4.643375397,1.607176304,-0.7904763222,4.976826656,
810,3.891029135,4.389255047,1.729586601,-0.2069439888,4.722272281,
811,3.895771374,4.100927353,1.954556465,0.8238716125,4.61699692,
812,3.900513614,3.970663548,2.20533371,1.63896656,4.828651692,
813,3.905255853,3.620012283,2.321521282,1.86909771,4.689080533,
814,3.909998093,3.443651199,2.245750904,1.075428963,4.249550348,
815,3.914740332,3.368490696,1.896672726,-0.2635440826,3.874732569,
816,3.919482572,2.482365131,1.348024845,-0.8828172684,2.959505695,
817,3.924224812,1.554468632,0.7521033287,-1.055621624,2.023948902,
818,3.928967051,1.685317993,0.394162178,-1.424594879,2.241680426,
819,3.933709291,1.873267174,0.1962366104,-1.975582838,2.729572542,
820,3.93845153,1.36478138,0.02382707596,-2.36583519,2.731368172,
821,3.94319377,0.9481539726,-0.1876335144,-1.97450304,2.198377708,
822,3.94793601,0.9411220551,-0.4092159271,-1.37177515,1.713165334,
823,3.952678249,0.9408192635,-0.5207386017,-0.9503364563,1.435078032,
824,3.957420437,0.520717144,-0.3729324341,-0.7920045853,1.018575578,
825,3.962162676,-0.1520423889,-0.2662625313,-0.6342654228,0.7044893542,
826,3.966904916,-0.773927927,-0.09749746323,-0.2429299355,0.8169976408,
827,3.971647155,-0.8208115101,0.2739934921,0.3267407417,0.924966746,
828,3.976389395,0.05304908752,0.7273950577,0.837498188,1.11054986,
829,3.981131635,3.643654346,1.959965706,0.4437441826,4.161080565,
830,3.985873874,1.470948696,2.038091183,0.4335036278,2.550574667,
831,3.990616114,-2.455176592,3.130387783,17.73628998,18.17699651,
832,3.995358353,-1.950447559,6.337244987,42.62464142,43.13728058,
833,4.000100593,-1.796417713,4.502776623,9.277136803,10.46744387,
834,4.004842832,1.507753134,4.143570423,-6.494738102,7.850103081,
835,4.009585072,-0.9268546104,2.213254929,-5.969920635,6.43408962,
836,4.014327312,-1.245577097,1.779001236,-7.561615467,7.867295353,
837,4.019069551,-1.028429747,2.362938881,-8.150021553,8.547748196,
838,4.023811791,-2.108228683,2.489053249,-8.523086548,9.125953022,
839,4.02855403,-2.030205488,2.229260445,-9.562244415,10.026358,
840,4.03329627,-2.368892431,1.469846725,-9.713485718,10.10563731,
841,4.03803851,-1.359841943,1.024072647,-9.432724953,9.58510276,
842,4.042780749,-0.2756915092,0.4329786301,-7.512171268,7.529687475,
843,4.047522989,-0.1990203857,0.03039360046,-3.241707563,3.247953327,
844,4.052265228,0.06276583672,0.0691075325,0.6882014275,0.694504576,
845,4.057007468,1.287876844,0.7055282593,2.857726097,3.212941851,
846,4.061749707,2.635340214,3.571628094,9.693914413,10.66177855,
847,4.066491947,1.259963036,3.985100269,19.09645844,19.54848474,
848,4.071234187,0.9638853073,2.412856579,19.15201569,19.32745862,
849,4.075976426,-2.65549159,-1.345434189,13.17300034,13.50517555,
850,4.080718666,-3.275715828,-5.010881424,5.087726116,7.856475282,
851,4.085460905,-4.238731384,-6.984463215,0.6736001968,8.197762339,
852,4.090203145,-4.005308151,-7.310293674,-0.5247058868,8.352137646,
853,4.094945385,-3.029312849,-7.10473156,-2.702452183,8.182737603,
854,4.099687624,-1.914448738,-6.46148634,-5.064991474,8.430305945,
855,4.104429864,-1.719347358,-5.918450356,-7.207448006,9.483222907,
856,4.109172103,-1.203764677,-5.083358288,-8.552704811,10.02189306,
857,4.113914343,-0.4312170744,-4.144550323,-8.023096085,9.040648004,
858,4.118656582,0.1292363405,-3.334326267,-6.030266762,6.891919247,
859,4.123398822,0.9676690102,-2.702532768,-4.633024693,5.450227929,
860,4.128141062,1.680355072,-1.856131554,-2.296777248,3.397646721,
861,4.132883301,1.271136999,-1.076084614,0.1243162155,1.670090383,
862,4.137625541,0.8248621225,-0.4650716782,2.093993187,2.298150703,
863,4.14236778,1.294647455,0.03301239014,2.862491608,3.14182432,
864,4.14711002,1.87633884,0.398088932,2.340536118,3.026091796,
865,4.15185226,1.493607998,0.5328159332,2.446262836,2.915297504,
866,4.156594499,1.13819313,0.6117482185,2.538368702,2.848339016,
867,4.161336739,0.8473684788,0.3981332779,1.993210793,2.202142754,
868,4.166078978,0.5673146844,0.1872396469,0.7032065392,0.9227155971,
869,4.170821218,0.1247907877,-0.06886196136,-0.4212560654,0.4447149458,
870,4.175563457,-0.7277741432,-1.039262772,-1.096746445,1.677073366,
871,4.180305697,-1.352613568,-1.823359489,-1.830220461,2.916146469,
872,4.185047937,-1.555877447,-1.972529888,-2.144955397,3.303401647,
873,4.189790176,-1.395815372,-1.705422401,-1.835754871,2.868233266,
874,4.194532416,-1.251353383,-1.551233292,-1.670768499,2.600707095,
875,4.199274655,-1.22002089,-1.67740202,-1.747520685,2.712186766,
876,4.204016947,-1.382650495,-2.035840988,-1.843118429,3.074647372,
877,4.208759187,-0.9586703181,-2.007354736,-1.614946365,2.748922258,
878,4.213501426,-0.3911104798,-1.575761795,-1.433708668,2.165990117,
879,4.218243666,-0.1581689417,-1.011844635,-0.237326622,1.05127109,
880,4.222985905,-0.09886452556,-0.176445961,0.5447044373,0.5810424215,
881,4.227728145,0.3124147654,0.8047761917,0.7314891815,1.131522924,
882,4.232470385,1.163483858,2.103259087,0.1654438972,2.409308024,
883,4.237212624,2.106518745,3.330706596,-0.03883886337,3.941133861,
884,4.241954864,1.863513947,3.926959991,-0.1499276161,4.349273191,
885,4.246697103,0.4928603172,4.159151077,-0.4994244576,4.217922921,
886,4.251439343,-1.218577504,3.036269188,-1.081557512,3.445813165,
887,4.256181582,-1.63871932,1.016706467,-2.23360467,2.950946097,
888,4.260923822,-1.612443686,-0.8954253197,-2.324687958,2.967479611,
889,4.265666062,-1.772210956,-2.295658588,-1.639968872,3.331707959,
890,4.270408301,-1.405516744,-3.093173981,-1.069160461,3.5617842,
891,4.275150593,-0.803602457,-3.612768173,-0.6026587486,3.749809108,
892,4.279892832,-0.6442155838,-3.992140293,-0.4583544731,4.069678938,
893,4.284635072,-0.4780552685,-4.086711884,0.1314001083,4.116675461,
894,4.289377312,-0.4153567255,-4.047832966,0.5810127258,4.110358709,
895,4.294119551,-0.5903567672,-4.123795986,0.7080516815,4.225582993,
896,4.298861791,-0.6479840279,-4.468727112,0.07793855667,4.516135485,
897,4.30360403,-0.03421348333,-4.365732193,-0.9576466084,4.469661639,
898,4.30834627,1.027935386,-3.452423573,-1.787172556,4.021177119,
899,4.31308851,1.20867157,-2.501022816,-1.102594614,2.988597827,
900,4.317830749,1.24716115,-2.252155781,-0.679210186,2.662506915,
901,4.322573041,1.33609271,-2.874274254,-0.9842162132,3.318927202,
902,4.32731528,0.9983026385,-3.173503399,-0.3832101822,3.348818004,
903,4.33205752,0.1788375974,-3.63136816,0.09962368011,3.637133827,
904,4.33679976,-0.3102347851,-4.004496098,0.4056515694,4.036928017,
905,4.341541999,-0.3381783366,-3.988127232,0.7764177322,4.077051373,
906,4.346284239,-0.4410007596,-4.004682064,1.104002476,4.177413263,
907,4.351026478,-0.4488833547,-4.020774364,1.358037949,4.267597664,
908,4.355768718,-0.4948967099,-4.811436653,1.063581467,4.952378313,
909,4.360510957,-1.040627837,-4.620835304,0.6765232086,4.784632573,
910,4.365253249,-1.192144632,-3.952802658,0.9945163727,4.246754113,
911,4.369995489,-1.216454864,-3.513720036,0.4319677353,3.743339024,
912,4.374737728,-1.501312375,-3.477867603,-0.6950001717,3.851302007,
913,4.379479968,-1.5512321,-3.789239407,-1.566548824,4.383917372,
914,4.384222207,-0.9319621325,-3.899058819,-2.569139957,4.761480149,
915,4.388964447,-0.2800608873,-3.688160419,-3.231207848,4.911381225,
916,4.393706687,-0.4509892464,-3.160200119,-2.899115801,4.31220692,
917,4.398448978,-0.4887183905,-2.669451714,-3.423498392,4.36865647,
918,4.403191218,-0.5064698458,-2.495017052,-3.796372414,4.571002658,
919,4.407933457,-0.7775121927,-2.399079323,-3.63461113,4.423856335,
920,4.412675697,-1.261795521,-1.955558777,-2.90094924,3.719118788,
921,4.417417937,-1.454742074,-1.483474731,-1.706671238,2.688809866,
922,4.422160176,-1.258811593,-0.8259429932,-0.06897974014,1.507165107,
923,4.426902416,-1.451189637,-0.206445694,1.018826485,1.785099043,
924,4.431644655,-1.466012001,0.5224256516,2.166899681,2.667878179,
925,4.436386947,-1.796118855,0.7934303284,2.621018887,3.274952615,
926,4.441129187,-1.92805481,0.8936185837,2.820890427,3.531766176,
927,4.445871426,-1.903493404,0.7438430786,2.576337337,3.288480461,
928,4.450613666,-1.603696465,0.7468118668,2.072967052,2.725208748,
929,4.455355905,-1.174863338,1.669765472,0.09656095505,2.043953183,
930,4.460098197,-0.6266612411,2.36917305,-0.3035206795,2.469374426,
931,4.464840437,-0.1352868676,2.859664917,-0.4513311386,2.898221139,
932,4.469582676,0.5297902226,2.69897747,-0.2509822845,2.761910421,
933,4.474324916,2.111488342,2.894523621,-2.103504658,4.15468192,
934,4.479067155,2.550025463,3.090532303,-2.82882905,4.904721559,
935,4.483809395,2.588346243,2.025878906,-1.649586678,3.67761578,
936,4.488551635,2.014469147,0.670375824,-1.121522188,2.401104268,
937,4.493293926,0.1786676645,-0.8260354996,0.6761267185,1.082314243,
938,4.498036166,-0.7013648748,-1.733217716,2.68145299,3.268967188,
939,4.502778405,-0.5164018869,-2.094026566,3.953093052,4.503172531,
940,4.507520645,-0.1331337094,-2.199440479,5.090074539,5.546541429,
941,4.512262885,0.08641791344,-2.310736656,5.749417305,6.196996958,
942,4.517005176,0.9821155667,-1.440761089,5.356190681,5.632860918,
943,4.521747416,-0.06921243668,-1.108763218,4.398793221,4.53690732,
944,4.526489655,-1.671280861,-1.98842001,2.241975546,3.431245867,
945,4.531231895,-1.670295477,-2.499510288,-0.7656135559,3.102193221,
946,4.535974135,-1.54087019,-2.468026638,-1.255178213,3.168739304,
947,4.540716426,-1.40652132,-2.058479309,-2.052939653,3.229582095,
948,4.545458666,-1.345391273,-1.333014011,-2.952884197,3.508066293,
949,4.550200905,-1.443398476,-0.8701019287,-3.772890091,4.132212018,
950,4.554943145,-1.505151987,-0.8838796616,-4.43332386,4.764565689,
951,4.559685385,-1.409376144,-1.092061043,-4.774415016,5.096467128,
952,4.564427676,-1.357231975,-1.629279613,-4.524778366,4.99702411,
953,4.569169916,-1.324788332,-1.954224586,-3.971329212,4.620120515,
954,4.573912155,-1.566510201,-1.902578354,-2.995281696,3.87884919,
955,4.578654395,-2.064937115,-1.901027203,-1.631211281,3.24633947,
956,4.583396687,-2.608875036,-1.977845192,-0.5404753685,3.318164279,
957,4.588138926,-2.858100176,-2.13876152,0.1286687851,3.572057266,
958,4.592881166,-2.806847811,-2.238340378,0.5692193508,3.634910308,
959,4.597623405,-2.723290205,-2.145720959,0.7508275509,3.547417368,
960,4.602365645,-2.438245296,-1.843779564,0.7817513943,3.155265195,
961,4.607107937,-2.086206436,-1.559702873,0.8692684174,2.746007634,
962,4.611850176,-1.942907333,-1.242692947,0.8660664558,2.463583929,
963,4.616592416,-1.859129071,-0.7009220123,0.7666285038,2.129641245,
964,4.621334655,-1.732613921,-0.03996753693,0.8013365269,1.909368648,
965,4.626076947,-1.288585424,0.6760845184,0.7104227543,1.619334172,
966,4.630819187,-0.8445305824,1.350266457,0.4385597706,1.651903775,
967,4.635561426,-0.182963118,2.014262199,0.1255574226,2.026448217,
968,4.640303666,0.3419362605,2.565556526,-0.08362078667,2.589593237,
969,4.645045957,0.9661509991,3.102239609,-0.4018497467,3.273961142,
970,4.649788197,1.635973215,3.693722725,-0.6905715466,4.098400296,
971,4.654530437,2.182405233,4.172927856,-0.8553886414,4.786220766,
972,4.659272676,2.754249334,4.6192379,-0.7710123062,5.433020168,
973,4.664014916,3.69529295,4.886492729,-1.008440971,6.208860956,
974,4.668757207,4.337117195,5.019355774,-1.055394888,6.717021387,
975,4.673499447,4.445715904,5.004501343,-0.7741575241,6.738601002,
976,4.678241687,4.247186184,4.867097855,-0.2287154198,6.463709674,
977,4.682983926,4.035577774,4.71430397,0.3596608639,6.216100533,
978,4.687726218,3.848834276,4.579576492,0.8547081947,6.042894359,
979,4.692468457,3.587434769,4.465164185,1.254499912,5.863544103,
980,4.697210697,3.184065342,4.373400688,1.540218115,5.624693549,
981,4.701952937,2.693804502,4.266329765,1.627593279,5.301623548,
982,4.706695228,2.245276928,4.118106842,1.518191099,4.930007775,
983,4.711437468,1.885646224,3.929030418,1.285701036,4.543783541,
984,4.716179707,1.635145426,3.747189522,1.042108536,4.219137362,
985,4.720921999,1.54934752,3.510870934,0.5281717777,3.873713706,
986,4.725664239,1.65136683,3.249382973,-0.1111550331,3.64662276,
987,4.730406478,1.917678237,3.020476341,-0.6517043114,3.636686082,
988,4.735148718,2.172711611,2.876532555,-0.832536459,3.699761105,
989,4.73989101,2.45152998,2.826577187,-0.6793847084,3.802775488,
990,4.744633249,2.804027081,2.910941124,-0.3380100727,4.055908888,
991,4.749375489,3.008939028,3.069606781,0.1127243042,4.299872862,
992,4.754117728,3.063918352,3.249897957,0.6464710236,4.513020849,
993,4.75886002,3.034657478,3.387531281,1.145418167,4.69004232,
994,4.76360226,2.93560338,3.528544426,1.579875946,4.854317766,
995,4.768344499,2.706343174,3.737999916,1.946730614,5.00866218,
996,4.773086791,2.340562344,4.018527031,2.071179867,5.090832704,
997,4.77782903,1.989014506,4.375284195,1.857274055,5.152548632,
998,4.78257127,1.775161386,4.756000519,1.364674568,5.256717184,
999,4.787313562,1.661155224,5.022408485,0.6552219391,5.330416444,
1000,4.792055801,1.654693127,5.059872627,-0.1917352676,5.327014432,
1001,4.796798041,1.639896393,4.882658958,-1.026872396,5.252055369,
1002,4.801540332,1.569295049,4.581548691,-1.840059042,5.180645967,
1003,4.806282572,1.454686165,4.114743233,-2.425920486,4.993226804,
1004,4.811024812,1.304153681,3.598932266,-2.836464643,4.764311278,
1005,4.815767103,1.198924303,3.086805344,-3.12239933,4.551391468,
1006,4.820509343,1.168080449,2.647669792,-3.283921003,4.377065732,
1007,4.825251582,1.108094096,2.263781548,-3.041922808,3.950427039,
1008,4.829993822,0.8643618226,1.94598484,-2.493072271,3.278625887,
1009,4.834736114,0.5029757619,1.6141119,-1.825035572,2.487789517,
1010,4.839478353,0.1634800434,1.246200562,-1.075527191,1.654237076,
1011,4.844220645,-0.1966971159,0.8545646667,-0.3816127777,0.9563466093,
1012,4.848962885,-0.6260925531,0.573846817,0.2216954231,0.8777476375,
1013,4.853705124,-1.074538946,0.3682966232,0.8701786995,1.430904371,
1014,4.858447364,-1.464877725,0.1976976395,1.457717896,2.076028075,
1015,4.863189655,-1.768567443,0.04353904724,1.98145771,2.65629462,
1016,4.867931895,-1.896594167,-0.09146499634,2.441779137,3.09317323,
1017,4.872674187,-1.838322997,-0.2092790604,2.754776001,3.318436376,
1018,4.877416426,-1.706341028,-0.3766732216,2.958689213,3.436178732,
1019,4.882158666,-1.566080332,-0.6586723328,3.123723507,3.555855086,
1020,4.886900957,-1.440932512,-1.018062592,3.246520042,3.694946594,
1021,4.891643197,-1.368038416,-1.544525623,3.364641666,3.946885108,
1022,4.896385437,-1.258700013,-2.120785236,3.349130154,4.15917402,
1023,4.901127728,-1.115978003,-2.650967598,3.197241783,4.30062683,
1024,4.905869968,-0.9188327789,-3.091911793,2.98757267,4.396562597,
1025,4.910612207,-0.6991369724,-3.460168362,2.676372528,4.429957958,
1026,4.915354499,-0.5156457424,-3.812028885,2.132211208,4.398156362,
1027,4.920096739,-0.4494137764,-4.131738663,1.246958256,4.3391407,
1028,4.924838978,-0.4403979778,-4.354087353,0.1575660706,4.379138514,
1029,4.92958127,-0.4610683918,-4.450209141,-0.8714461327,4.558109676,
1030,4.93432351,-0.4633016586,-4.432448387,-1.634182453,4.74676726,
1031,4.939065801,-0.3732709885,-4.296425819,-2.132147789,4.810889756,
1032,4.943808041,-0.1616456509,-4.085465431,-2.404787779,4.7434335,
1033,4.94855028,0.1436905861,-3.802219868,-2.443494558,4.521967333,
1034,4.953292572,0.4846177101,-3.44003582,-2.261457443,4.145225028,
1035,4.958034812,0.7364497185,-3.085584641,-1.867880344,3.6813269,
1036,4.962777103,0.8746294975,-2.837279797,-1.389495373,3.278083402,
1037,4.967519343,0.9009275436,-2.774393082,-0.8833918571,3.047836706,
1038,4.972261582,0.852925539,-2.863581181,-0.3996577263,3.01451579,
1039,4.977003874,0.762771368,-3.035576344,-0.02463150024,3.130040033,
1040,4.981746114,0.6680366993,-3.233053684,0.2464632988,3.310536711,
1041,4.986488353,0.5282043219,-3.45639801,0.4789443016,3.529174784,
1042,4.991230645,0.3537726402,-3.600587845,0.6544179916,3.676635802,
1043,4.995972885,0.202524662,-3.591585636,0.7348184586,3.671574838,
1044,5.000715176,0.08569765091,-3.46284008,0.6646051407,3.527081726,
1045,5.005457416,-0.03624391556,-3.293233395,0.4359278679,3.322157871,
1046,5.010199655,-0.1909782887,-3.151971817,0.07910585403,3.158742911,
1047,5.014941947,-0.3699781895,-3.046329021,-0.3151812553,3.084857143,
1048,5.019684187,-0.5578639507,-2.998253822,-0.6847043037,3.125629241,
1049,5.024426478,-0.7078540325,-3.015268326,-0.9600253105,3.242614532,
1050,5.029168718,-0.7605619431,-3.071164608,-1.119593143,3.356187618,
1051,5.03391101,-0.7331929207,-3.161157608,-1.185072422,3.454690424,
1052,5.038653249,-0.6064121723,-3.277971745,-1.108550072,3.513078101,
1053,5.043395489,-0.3982975483,-3.412046432,-0.8846325874,3.547291447,
1054,5.04813778,-0.1628456116,-3.527604103,-0.5413169861,3.572608778,
1055,5.05288002,0.03855109215,-3.641601562,-0.1400365829,3.644496998,0.0
1056,5.057622312,0.1384952068,-3.765839577,0.255408287,3.777030849,0.0
1057,5.062364551,0.1495957375,-3.911955833,0.6029825211,3.960980339,0.0
1058,5.067106843,0.07895755768,-4.130142689,0.8799209595,4.223573584,0.0
1059,5.071849082,-0.05213141441,-4.354115009,1.082702637,4.487012391,0.0
1060,5.076591322,-0.3202474117,-4.224995136,1.280056477,4.426249755,0.0
1061,5.081333614,-0.2735025883,-3.513085842,1.847480297,3.978662998,0.0
1062,5.086075853,-0.4284203053,-2.515891552,2.48619175,3.562920666,0.0
1063,5.090818145,-0.9882848263,-2.063034534,2.674429417,3.519288436,0.0
1064,5.095560385,-1.092323422,-1.829774857,2.153793335,3.029863399,0.0
1065,5.100302676,-1.205585718,-2.213864326,2.075857162,3.265549745,0.0
1066,5.105044916,-1.148064137,-2.803307056,2.070987225,3.669546266,0.0
1067,5.109787207,-0.7685570717,-3.361697674,2.365894318,4.182002767,0.0
1068,5.114529447,-0.3006774187,-3.84288311,2.532588005,4.612175139,0.0
1069,5.119271687,0.03776884079,-4.18180418,2.325125217,4.78488453,0.0
1070,5.124013978,0.2501085997,-4.40252161,1.948824883,4.821065159,0.0
1071,5.128756218,0.3581225872,-4.521965504,1.380534172,4.741550211,0.0
1072,5.13349851,0.01839005947,-4.582439899,0.9320232868,4.676297791,0.0
1073,5.138240749,-0.5665310621,-4.611721516,0.7555141449,4.707412708,0.0
1074,5.142983041,-1.086286306,-4.596015453,0.6533107758,4.767619003,0.0
1075,5.14772528,-1.440385342,-4.563315868,0.3919110298,4.801266073,0.0
1076,5.152467572,-1.513466835,-4.43118763,-0.01420164108,4.68254283,0.0
1077,5.157209812,-1.205072522,-3.999827385,-0.6800510883,4.232409287,0.0
1078,5.161952103,-0.8631746769,-3.159157753,-1.273970842,3.514021904,0.0
1079,5.166694343,-0.2492761612,-2.324899673,-1.931168079,3.032607335,0.0
1080,5.171436635,0.7225780487,-1.362505913,-2.44175005,2.88802436,0.0
1081,5.176178874,1.488668203,-0.2341384888,-3.050360918,3.402301512,0.0
1082,5.180921166,1.7600559,1.09321785,-3.640660286,4.188953253,0.0
1083,5.185663405,1.910090923,2.742944717,-4.222984314,5.385702329,0.0
1084,5.190405697,2.289320946,4.37583828,-5.392065048,7.311861359,0.0
1085,5.195147937,2.783280373,5.777853012,-6.501708508,9.132494105,0.0
1086,5.199890228,3.466698647,6.887852669,-7.055299759,10.45168736,0.0
1087,5.204632468,4.099000454,7.545547485,-6.972557068,11.06135813,0.0
1088,5.20937476,4.527351379,7.6559515,-6.553277969,11.04789374,0.0
1089,5.214116999,4.719743729,7.342646599,-6.025355339,10.60638237,0.0
1090,5.218859291,4.811692238,6.820590973,-5.62343502,10.06458468,0.0
1091,5.22360153,4.839776516,6.218395233,-5.245152473,9.465912553,0.0
1092,5.228343822,4.890597343,5.585706711,-4.817463875,8.850198869,0.0
1093,5.233086062,4.714055061,4.866621971,-4.346284389,8.049628099,0.0
1094,5.237828353,4.312140942,4.062925339,-3.948031425,7.119611924,0.0
1095,5.242570593,3.937890053,3.179093361,-3.5788517,6.198531451,0.0
1096,5.247312885,3.50703311,2.236252785,-3.154001951,5.219945982,0.0
1097,5.252055124,3.019611835,1.274276733,-2.542218447,4.147856249,0.0
1098,5.256797416,2.590034485,0.5193033218,-1.544280529,3.05986224,0.0
1099,5.261539655,2.371260643,-0.0673532486,-0.4632143974,2.417019047,0.0
1100,5.266281947,2.345312119,-0.5999288559,0.5158448219,2.475176649,0.0
1101,5.271024187,2.432883739,-1.017619133,1.32613945,2.951799084,0.0
1102,5.275766478,2.321938753,-1.327002048,1.90818119,3.285344649,0.0
1103,5.280508718,2.074986219,-1.606759071,2.38021183,3.542972041,0.0
1104,5.28525101,1.677893162,-1.689058304,2.649553299,3.56207469,0.0
1105,5.289993301,1.30177784,-1.576234341,2.835616112,3.495691487,0.0
1106,5.294735541,1.150118709,-1.496397018,3.035405397,3.574305948,0.0
1107,5.299477832,1.066765785,-1.725803852,3.08315134,3.69082787,0.0
1108,5.304220072,0.9694389105,-1.95565033,2.991693258,3.703323989,0.0
1109,5.308962364,0.4380112886,-1.993967056,2.932442904,3.573091084,0.0
1110,5.313704603,-0.4688863754,-1.906784534,2.703469038,3.341321076,0.0
1111,5.318446895,-1.235890508,-1.647332191,2.225127935,3.031884402,0.0
1112,5.323189135,-1.485692978,-1.269675255,1.631741047,2.545964988,0.0
1113,5.327931426,-1.476900578,-0.9219255447,1.200531244,2.114818502,0.0
1114,5.332673666,-1.342602968,-0.6351308823,0.9218642712,1.748086869,0.0
1115,5.337415957,-1.117343426,-0.4451274872,0.6739141941,1.37867877,0.0
1116,5.342158197,-0.9031829238,-0.1493005753,0.7414739132,1.178055016,0.0
1117,5.346900489,-0.5748337507,0.261267662,0.8368105888,1.048306536,0.0
1118,5.35164278,-0.3955956995,0.7189340591,1.10064435,1.372872945,0.0
1119,5.35638502,-0.349879235,1.127741814,1.349611044,1.793228108,0.0
1120,5.361127312,-0.3481548727,1.524508476,1.135497808,1.932535429,0.0
1121,5.365869551,-0.405967772,1.921539307,0.9094204903,2.164294057,0.0
1122,5.370611843,-0.6159585714,2.279916763,1.169190645,2.635229055,0.0
1123,5.375354082,-0.7758646011,2.561611176,1.41651845,3.02825729,0.0
1124,5.380096374,-0.6621543765,2.711994171,1.545659304,3.190990988,0.0
1125,5.384838614,-0.2864070833,2.822381973,1.572631955,3.243615311,0.0
1126,5.389580905,0.3105150461,2.86677742,1.467657089,3.235560184,0.0
1127,5.394323197,1.213396192,2.797489166,1.316211343,3.321247996,0.0
1128,5.399065437,2.824920177,2.47589016,1.026864052,3.894182311,0.0
1129,5.403807728,3.994009972,1.923920631,0.6460160017,4.480058362,0.0
1130,5.408549968,4.74540329,1.21142292,0.1976643801,4.901578224,0.0
1131,5.41329226,5.20651722,0.4365720749,-0.1851252317,5.228067337,0.0
1132,5.418034551,5.391264439,-0.2908382416,-0.5161108971,5.423715478,0.0
1133,5.422776791,5.287186623,-1.108085632,0.08260881901,5.402686403,0.0
1134,5.427519082,5.1205163,-1.90563488,0.8365411758,5.527289807,0.0
1135,5.432261322,4.956938267,-2.616618633,1.34950757,5.765336134,0.0
1136,5.437003614,4.744706631,-3.279285431,1.633752346,5.994589283,0.0
1137,5.441745905,4.417515278,-3.970287323,1.801121473,6.206582088,0.0
1138,5.446488145,4.060753345,-4.658985615,2.318100214,6.60071612,0.0
1139,5.451230437,3.667061806,-5.31216526,3.219479561,7.213285706,0.0
1140,5.455972676,3.210240364,-5.919891357,3.809289932,7.737017944,0.0
1141,5.460714968,2.593616962,-6.517291069,3.984944582,8.067323915,0.0
1142,5.46545726,1.78732264,-7.089172363,3.714356422,8.200446979,0.0
1143,5.470199499,0.8577675223,-7.582302094,2.973284006,8.189474216,0.0
1144,5.474941791,0.01713752747,-7.936454773,1.800860047,8.138224927,0.0
1145,5.47968403,-0.6954447031,-7.940671444,-1.037416101,8.038292013,0.0
1146,5.484426322,-1.33031702,-7.68396616,-4.196070671,8.855511752,0.0
1147,5.489168614,-1.99606204,-7.30352354,-6.40075922,9.914405598,0.0
1148,5.493910853,-2.583060265,-6.742588997,-7.913294315,10.71237292,0.0
1149,5.498653145,-2.184569359,-4.811853886,-8.87846756,10.33215695,0.0
1150,5.503395437,-0.4380140305,-0.8933477402,-9.470327377,9.522448588,0.0
1151,5.508137676,1.934526086,4.232081413,-9.777425766,10.82824819,0.0
1152,5.512879968,4.255180359,9.735743523,-10.20279217,14.73052035,0.0
1153,5.51762226,5.378269672,14.44965744,-10.52234459,18.66649727,0.0
1154,5.522364499,4.758275986,17.32732773,-10.53265095,20.82820714,0.0
1155,5.527106791,2.629060268,18.33411598,-10.16273594,21.12659387,0.0
1156,5.53184903,-0.2484357357,17.94362831,-9.401799202,20.25905589,0.0
1157,5.536591322,-2.877227306,16.61396027,-8.139838219,18.72322298,0.0
1158,5.541333614,-4.577397346,14.64213753,-6.17125082,16.53569153,0.0
1159,5.546075853,-5.198439598,12.27912807,-3.556652069,13.80038168,0.0
1160,5.550818145,-5.063921928,9.773073196,-0.6043229103,11.02367775,0.0
1161,5.555560437,-4.566409588,7.40062809,2.327080727,9.002038511,0.0
1162,5.560302676,-3.857179403,5.321240425,5.055142403,8.291435179,0.0
1163,5.565044968,-3.027602196,3.55578804,7.433790207,8.779022752,0.0
1164,5.56978726,-2.201637506,2.053668976,9.296536446,9.771916591,0.0
1165,5.574529499,-1.317696452,0.7694702148,10.3121748,10.42445957,0.0
1166,5.579271791,-0.4398976266,-0.363524437,10.4143362,10.42995966,0.0
1167,5.584014082,0.2205765843,-1.368920326,9.87416935,9.971048954,0.0
1168,5.588756322,0.5885053277,-2.244085312,8.970623016,9.265761421,0.0
1169,5.593498614,0.6719733477,-2.964955807,7.889369965,8.454860706,0.0
1170,5.598240905,0.5484032631,-3.474081516,6.679176331,7.548601524,0.0
1171,5.602983145,0.3148497939,-3.793085098,5.38415432,6.593613781,0.0
1172,5.607725437,0.07141435891,-3.955627918,4.087462902,5.688536298,0.0
1173,5.612467728,-0.1170278713,-3.988240719,2.861344099,4.909893034,0.0
1174,5.617209968,-0.2284535468,-3.927048206,1.791649938,4.322488651,0.0
1175,5.62195226,-0.2667610347,-3.812915802,0.9027406573,3.927394691,0.0
1176,5.626694551,-0.2213802636,-3.65555191,0.1616640389,3.665815633,0.0
1177,5.631436791,-0.1154019162,-3.478992462,-0.4282064438,3.507145123,0.0
1178,5.636179082,0.01596862264,-3.297660351,-0.8826175928,3.413771024,0.0
1179,5.640921374,0.1758644432,-3.149870396,-1.219568729,3.382300947,0.0
1180,5.645663614,0.3169941604,-3.033213615,-1.46236372,3.382214923,0.0
1181,5.650405905,0.5414600372,-2.907014847,-1.637047768,3.379917112,0.0
1182,5.655148197,0.8847248554,-2.75215435,-1.757888556,3.38338053,0.0
1183,5.659890489,1.292755246,-2.599728107,-1.839154959,3.436901704,0.0
1184,5.664632728,1.65757823,-2.454473495,-1.842350721,3.488016902,0.0
1185,5.66937502,1.937708735,-2.304369926,-1.77206099,3.493570674,0.0
1186,5.674117312,2.148954153,-2.14218235,-1.671331525,3.464144662,0.0
1187,5.678859551,2.314490557,-1.955896378,-1.576045036,3.415598796,0.0
1188,5.683601843,2.445697308,-1.752646446,-1.486121655,3.355854952,0.0
1189,5.688344135,2.551609039,-1.534767151,-1.396810055,3.288965981,0.0
1190,5.693086374,2.621896744,-1.309402466,-1.305497169,3.208301764,0.0
1191,5.697828666,2.648431778,-1.081309319,-1.204748273,3.104003725,0.0
1192,5.702570957,2.622802258,-0.8553056717,-1.084387302,2.964209051,0.0
1193,5.707313249,2.507413864,-0.6553649902,-0.9487633705,2.759851353,0.0
1194,5.712055489,2.314978838,-0.4911403656,-0.7901085019,2.4949183,0.0
1195,5.71679778,2.094899416,-0.3292398453,-0.6101888418,2.206656489,0.0
1196,5.721540072,1.878163457,-0.1457901001,-0.4498585463,1.936782238,0.0
1197,5.726282364,1.701219797,0.07597255707,-0.3169213533,1.732154662,0.0
1198,5.731024603,1.545194149,0.3121290207,-0.2022126317,1.589320431,0.0
1199,5.735766895,1.398245096,0.5148410797,-0.1081357002,1.493935747,0.0
1200,5.740509187,1.270061255,0.6746006012,-0.01559698582,1.438188036,0.0
1201,5.745251426,1.189803958,0.7770967484,0.0901671648,1.423953276,0.0
1202,5.749993718,1.186854124,0.8080844879,0.1926090717,1.448696485,0.0
1203,5.75473601,1.206228137,0.813038826,0.3136792183,1.488090422,0.0
1204,5.759478301,1.212181807,0.8612957001,0.4561008215,1.555391582,0.0
1205,5.764220541,1.253524184,0.9670591354,0.6711784601,1.719594946,0.0
1206,5.768962832,1.352606058,1.113328934,0.9771959782,2.00598017,0.0
1207,5.773705124,1.532132506,1.280808449,1.305835366,2.386023115,0.0
1208,5.778447416,1.800327778,1.452795029,1.501547813,2.7579774,0.0
1209,5.783189655,2.14136076,1.584021568,1.535057902,3.074240231,0.0
1210,5.787931947,2.565437794,1.684157372,1.514149904,3.422061814,0.0
1211,5.792674239,3.04619503,1.762515068,1.598493576,3.865351891,0.0
1212,5.79741653,3.495953083,1.808783531,1.975750327,4.40419972,0.0
1213,5.80215877,3.843788862,1.760400772,2.4030509,4.862959729,0.0
1214,5.806901062,4.024493694,1.586641312,2.596123219,5.045179473,0.0
1215,5.811643353,4.037762165,1.32612896,2.642128229,5.004296444,0.0
1216,5.816385593,3.950179815,1.036297798,2.713362217,4.903077423,0.0
1217,5.821127885,3.859927177,0.7865457535,2.781009197,4.822002094,0.0
1218,5.825870176,3.785976887,0.5651683807,2.695032597,4.681478077,0.0
1219,5.830612468,3.708554268,0.3199186325,2.419472933,4.439546369,0.0
1220,5.83535476,3.619910717,0.04387950897,2.069919348,4.170161282,0.0
1221,5.840096999,3.546396255,-0.2817573547,1.663851261,3.927431047,0.0
1222,5.844839291,3.454105377,-0.5777864456,1.000958443,3.64233427,0.0
1223,5.849581582,3.398732185,-0.7154159546,0.6981937885,3.542693188,0.0
1224,5.854323874,3.440036774,-0.8220643997,0.734092474,3.612275549,0.0
1225,5.859066114,3.549774408,-0.9192647934,0.7976464033,3.752623868,0.0
1226,5.863808405,3.665137768,-1.035311699,0.7683336735,3.885285293,0.0
1227,5.868550697,3.765728712,-1.169979095,0.751275897,4.014222128,0.0
1228,5.873292989,3.856741667,-1.311257362,0.7850451469,4.148511545,0.0
1229,5.87803528,3.933646917,-1.454376221,0.8676959276,4.282719286,0.0
1230,5.88277752,3.991832733,-1.592160225,0.9660588503,4.404880527,0.0
1231,5.887519812,4.021781445,-1.688720226,1.065897942,4.490282888,0.0
1232,5.892262103,4.033231258,-1.724909782,1.157648087,4.536784901,0.0
1233,5.897004395,4.031163216,-1.683959961,1.238745809,4.540978881,0.0
1234,5.901746635,3.991993904,-1.568247318,1.316399813,4.486460013,0.0
1235,5.906488926,3.923212767,-1.401637077,1.41197753,4.398848196,0.0
1236,5.911231218,3.820300102,-1.203100204,1.469761133,4.266420134,0.0
1237,5.91597351,3.678501844,-0.9580850601,1.445616722,4.066830524,0.0
1238,5.920715801,3.533874512,-0.6591653824,1.333443284,3.834167323,0.0
1239,5.925458093,3.424838543,-0.284529686,1.157945991,3.626474197,0.0
1240,5.930200332,3.36135006,0.1924676895,0.9245339632,3.491486944,0.0
1241,5.934942624,3.293259144,0.7816390991,0.6530860662,3.447178104,0.0
1242,5.939684916,3.182030439,1.485553741,0.3585820198,3.529981402,0.0
1243,5.944427207,2.971926689,2.268384933,0.0801743269,3.739564998,0.0
1244,5.949169499,2.606689215,3.089214325,-0.06974709034,4.042640036,0.0
1245,5.953911739,2.036627769,3.925526619,0.1875219345,4.426372825,0.0
1246,5.95865403,0.9133317471,4.674646378,1.322712421,4.943284514,0.0
1247,5.963396322,-0.520414114,5.330071449,2.467714787,5.896618418,0.0
1248,5.968138614,-2.156784058,5.787394524,3.791884899,7.247347372,0.0
1249,5.972880905,-3.81000495,5.966749191,5.162362099,8.761747318,0.0
1250,5.977623145,-5.221223354,5.896773338,6.329864502,10.104469,0.0
1251,5.982365437,-6.318074703,5.640173912,7.04756546,11.01806737,0.0
1252,5.987107728,-7.039813995,5.214476585,7.398376465,11.46672235,0.0
1253,5.99185002,-7.250425339,4.549381256,7.203229904,11.18713808,0.0
1254,5.996592312,-7.031805992,3.718178749,6.644039154,10.3640921,0.0
1255,6.001334603,-6.471002579,2.80333519,5.920295238,9.207739042,0.0
1256,6.006076843,-5.6963377,1.858328819,5.044322014,7.832421961,0.0
1257,6.010819135,-4.807538033,0.9148921967,4.105290413,6.387711565,0.0
1258,6.015561426,-3.86850667,0.0165014267,3.178544044,5.006871118,0.0
1259,6.020303718,-2.950639963,-0.8247175217,2.315917969,3.840561316,0.0
1260,6.02504601,-2.104027987,-1.587237835,1.540781617,3.052911021,0.0
1261,6.029788301,-1.369470119,-2.261659145,0.8503372669,2.777341168,0.0
1262,6.034530541,-0.7710058689,-2.831438541,0.2322747707,2.943712933,0.0
1263,6.039272832,-0.2804234028,-3.29690218,-0.3618606925,3.328534877,0.0
1264,6.044015124,0.1115233898,-3.65834856,-0.8941189647,3.76767838,0.0
1265,6.048757416,0.4434313774,-3.913446903,-1.379266858,4.173017507,0.0
1266,6.053499707,0.7543439865,-4.050094128,-1.837171674,4.510819998,0.0
1267,6.058241999,1.020936012,-4.075366497,-2.285477638,4.782711622,0.0
1268,6.062984239,1.159115791,-4.011044025,-2.725012541,4.985751392,0.0
1269,6.06772653,1.146601439,-3.874296665,-3.151618004,5.124213652,0.0
1270,6.072468822,1.020916939,-3.658358574,-3.558726788,5.204843437,0.0
1271,6.077211114,0.8124611378,-3.375533581,-3.988016129,5.287588552,0.0
1272,6.081953405,0.5518417358,-3.033206463,-4.423938274,5.392225941,0.0
1273,6.086695697,0.2965364456,-2.652837753,-4.862969398,5.547427636,0.0
1274,6.091437989,0.0585038662,-2.255806923,-5.292160511,5.753177422,0.0
1275,6.096180228,-0.1694943905,-1.86111927,-5.66419363,5.964527036,0.0
1276,6.10092252,-0.3679971695,-1.485351562,-5.905982971,6.101010247,0.0
1277,6.105664812,-0.5460460186,-1.116484642,-5.949696064,6.07812368,0.0
1278,6.110407103,-0.6907708645,-0.7545347214,-5.766933918,5.856962852,0.0
1279,6.115149395,-0.8033676147,-0.4162120819,-5.389473915,5.464893513,0.0
1280,6.119891687,-0.8948283195,-0.1158971786,-4.890624046,4.973163323,0.0
1281,6.124633978,-0.9711854458,0.1511116028,-4.269128799,4.380810038,0.0
1282,6.129376218,-1.052406311,0.4132347107,-3.433145046,3.6145272,0.0
1283,6.13411851,-1.15939045,0.6533489227,-2.515733719,2.846044127,0.0
1284,6.138860801,-1.310423374,0.8256435394,-1.830115676,2.39754459,0.0
1285,6.143603093,-1.510278702,0.924949646,-1.394125104,2.253898492,0.0
1286,6.148345385,-1.729892731,0.9700698853,-1.129249692,2.282272838,0.0
1287,6.153087676,-1.920578003,0.968006134,-0.9783719778,2.362809232,0.0
1288,6.157829916,-2.074028492,0.9306383133,-0.9202901125,2.452471355,0.0
1289,6.162572207,-2.150287628,0.8580493927,-0.9239153266,2.492710407,0.0
1290,6.167314499,-2.144884109,0.7551927567,-0.9647958875,2.470156887,0.0
1291,6.172056791,-2.057649374,0.6319293976,-1.02276969,2.383131039,0.0
1292,6.176799082,-1.895249605,0.4981794357,-1.084286332,2.239605025,0.0
1293,6.181541374,-1.664271355,0.3686304092,-1.140216231,2.050799984,0.0
1294,6.186283666,-1.395220518,0.2507591248,-1.198055387,1.856032635,0.0
1295,6.191025957,-1.128404379,0.1447067261,-1.248226404,1.688877034,0.0
1296,6.195768197,-0.8804914951,0.05522155762,-1.280815721,1.555250335,0.0
1297,6.200510489,-0.6658098698,-0.01780223846,-1.29763639,1.458588325,0.0
1298,6.20525278,-0.477091074,-0.07684707642,-1.29548347,1.382678121,0.0
1299,6.209995072,-0.3115186691,-0.1266469955,-1.273529053,1.317178648,0.0
1300,6.214737364,-0.1568713188,-0.1648283005,-1.233271122,1.254087174,0.0
1301,6.219479655,-0.03197932243,-0.2033548355,-1.168990374,1.186976984,0.0
1302,6.224221947,0.08034920692,-0.237411499,-1.062838078,1.091991298,0.0
1303,6.228964187,0.1757361889,-0.2765655518,-0.9160010815,0.972846182,0.0
1304,6.233706478,0.2449202538,-0.3207817078,-0.7637447119,0.8638245306,0.0
1305,6.23844877,0.2882349491,-0.3627948761,-0.6129003763,0.7683400154,0.0
1306,6.243191062,0.3129777908,-0.4002132416,-0.4679638147,0.6907357441,0.0
1307,6.247933353,0.3119723797,-0.4378557205,-0.3144367933,0.6228281422,0.0
1308,6.252675645,0.2729365826,-0.485449791,-0.1450301409,0.575490764,0.0
1309,6.257417937,0.2002546787,-0.5431718826,0.02595329285,0.5794921948,0.0
1310,6.262160228,0.08842945099,-0.6160974503,0.1984452009,0.6532812057,0.0
1311,6.26690252,-0.03430151939,-0.6756734848,0.360229969,0.7664704057,0.0
1312,6.27164476,-0.1391777992,-0.7218465805,0.5183707476,0.8995227499,0.0
1313,6.276387051,-0.2117242813,-0.7449245453,0.6605973244,1.01790401,0.0
1314,6.281129343,-0.2445390224,-0.7399768829,0.7867392302,1.107395023,0.0
1315,6.285871635,-0.2686085701,-0.7212867737,0.916003108,1.196439245,0.0
1316,6.290613926,-0.2887165546,-0.6960077286,1.058029294,1.298926478,0.0
1317,6.295356218,-0.3169519901,-0.6689596176,1.222609282,1.429244202,0.0
1318,6.30009851,-0.3508687019,-0.6329069138,1.395474553,1.571950774,0.0
1319,6.304840801,-0.3810787201,-0.5950737,1.576888084,1.72797851,0.0
1320,6.309583041,-0.4150903225,-0.5603256226,1.764599681,1.897386838,0.0
1321,6.314325332,-0.4486777782,-0.5240507126,1.93971765,2.058748518,0.0
1322,6.319067624,-0.4897460938,-0.5079889297,2.109545708,2.224429608,0.0
1323,6.323809916,-0.4903345108,-0.4879798889,2.218228102,2.323593815,0.0
1324,6.328552207,-0.4766745567,-0.4662103653,2.281599998,2.37702951,0.0
1325,6.333294499,-0.4219677448,-0.4208259583,2.320274591,2.395584573,0.0
1326,6.338036791,-0.2869129181,-0.3297643661,2.299149513,2.34033161,0.0
1327,6.342779082,-0.1041042805,-0.2260885239,2.213881016,2.227829184,0.0
1328,6.347521322,0.1058144569,-0.1405487061,2.137662172,2.144889321,0.0
1329,6.352263614,0.3242902756,-0.07772731781,2.09861517,2.124945022,0.0
1330,6.357005905,0.5155797005,-0.03523731232,2.079295158,2.142552788,0.0
1331,6.361748197,0.6530618668,-0.02045536041,2.076628447,2.176991945,0.0
1332,6.366490489,0.7266039848,-0.03130435944,2.092364788,2.215157719,0.0
1333,6.37123278,0.7648358345,-0.05833339691,2.116407871,2.251123923,0.0
1334,6.375975072,0.7870352268,-0.1015777588,2.150991917,2.292707726,0.0
1335,6.380717364,0.7862308025,-0.1394968033,2.215625525,2.355125198,0.0
1336,6.385459655,0.7795696259,-0.1648359299,2.318270206,2.451382556,0.0
1337,6.390201895,0.7698767185,-0.1918315887,2.457368851,2.58228023,0.0
1338,6.394944187,0.7453424931,-0.2108821869,2.674793959,2.784695576,0.0
1339,6.399686478,0.7154181004,-0.2172727585,2.909335613,3.003874868,0.0
1340,6.40442877,0.6895999908,-0.2134428024,3.123478174,3.205810644,0.0
1341,6.409171062,0.6653108597,-0.2066373825,3.31804657,3.390393869,0.0
1342,6.413913353,0.6229963303,-0.2065629959,3.522854328,3.583475313,0.0
1343,6.418655645,0.5547759533,-0.213467598,3.7073915,3.754743202,0.0
1344,6.423397937,0.4885308743,-0.2348117828,3.845530272,3.883542462,0.0
1345,6.428140176,0.4283354282,-0.2684316635,3.94946003,3.981678204,0.0
1346,6.432882468,0.3952860832,-0.3168354034,4.016921997,4.048740309,0.0
1347,6.43762476,0.3890287876,-0.3800992966,4.047927856,4.084303956,0.0
1348,6.442367051,0.4044499397,-0.4559173584,4.034954548,4.080722803,0.0
1349,6.447109343,0.4245033264,-0.5515375137,3.970432281,4.030971248,0.0
1350,6.451851635,0.458384037,-0.6551103592,3.865705013,3.947525903,0.0
1351,6.456593926,0.4892148972,-0.7690696716,3.731996775,3.841692245,0.0
1352,6.461336218,0.5651593208,-0.895699501,3.55633235,3.710684901,0.0
1353,6.466078457,0.6721167564,-1.018149376,3.381365776,3.594718848,0.0
1354,6.470820749,0.8078684807,-1.11244297,3.204427242,3.48690906,0.0
1355,6.475563041,0.9266250134,-1.200242996,3.046830416,3.403291458,0.0
1356,6.480305332,1.008562803,-1.274632931,2.900947809,3.325264836,0.0
1357,6.485047624,1.057653904,-1.33591795,2.758910894,3.242668326,0.0
1358,6.489789916,1.092453837,-1.389095306,2.610316277,3.15226779,0.0
1359,6.494532207,1.109924197,-1.422421932,2.458964825,3.049872766,0.0
1360,6.499274447,1.17243576,-1.40473175,2.318383932,2.95343545,0.0
1361,6.504016739,1.300122261,-1.318939209,2.195384502,2.8722172,0.0
1362,6.50875903,1.510986924,-1.15983963,2.104303837,2.83838054,0.0
1363,6.513501322,1.780004621,-0.9652719498,2.047769785,2.879848517,0.0
1364,6.518243614,2.111060619,-0.7586574554,2.01665163,3.016458498,0.0
1365,6.522985905,2.489090681,-0.5418586731,2.00645256,3.242689488,0.0
1366,6.527728197,2.89910531,-0.3287248611,2.005551815,3.540495688,0.0
1367,6.532470489,3.318778515,-0.1331834793,1.997310877,3.875729532,0.0
1368,6.537212728,3.735245228,0.04035758972,1.984270692,4.229777278,0.0
1369,6.54195502,4.10899353,0.1826086044,1.959379673,4.555912909,0.0
1370,6.546697312,4.421640396,0.3104858398,1.917854905,4.829645193,0.0
1371,6.551439603,4.615541458,0.4239177704,1.879299402,5.001469331,0.0
1372,6.556181895,4.656376839,0.5394363403,1.863563299,5.044373598,0.0
1373,6.560924187,4.588701248,0.6950721741,1.839843392,4.992427083,0.0
1374,6.565666478,4.440393925,0.9240665436,1.78175056,4.872949029,0.0
1375,6.570408718,4.229651451,1.247682571,1.669573784,4.71530909,0.0
1376,6.57515101,3.989326239,1.651412964,1.490329742,4.567600175,0.0
1377,6.579893301,3.774610043,2.123423576,1.221240759,4.499781956,0.0
1378,6.584635593,3.634118557,2.652127266,0.8657060266,4.581489239,0.0
1379,6.589377885,3.585799217,3.216591835,0.4271487594,4.835997841,0.0
1380,6.594120176,3.591778278,3.767109871,-0.06921571493,5.205456637,0.0
1381,6.598862468,3.547996521,4.236938477,-0.5617246628,5.554769263,0.0
1382,6.603604707,3.447962761,4.657323837,-1.007506728,5.881681931,0.0
1383,6.608346999,3.289915323,5.011630058,-1.382460833,6.152330992,0.0
1384,6.613089291,3.020797968,5.294867516,-1.664569616,6.319148232,0.0
1385,6.617831582,2.69347477,5.552288055,-1.850247622,6.442524757,0.0
1386,6.622573874,2.318247795,5.78364563,-1.918759584,6.519698456,0.0
1387,6.627316166,1.881416321,5.990796089,-1.860587239,6.549133533,0.0
1388,6.632058457,1.377111316,6.203910828,-1.597487211,6.552626231,0.0
1389,6.636800697,0.8241845369,6.43624115,-1.165917158,6.592711363,0.0
1390,6.641542989,0.2255647182,6.6676054,-0.6244058609,6.700576385,0.0
1391,6.64628528,-0.3601162434,6.878153801,-0.06869029999,6.887917085,0.0
1392,6.651027572,-0.9240031242,7.048342705,0.4213364124,7.121126388,0.0
1393,6.655769864,-1.418101549,7.185264587,0.8180720806,7.36941525,0.0
1394,6.660512155,-1.822375059,7.317857742,1.098235846,7.620906427,0.0
1395,6.665254395,-2.162176371,7.434366226,1.257796049,7.843905835,0.0
1396,6.669996687,-2.428823233,7.546761513,1.375097752,8.046346093,0.0
1397,6.674738978,-2.633474588,7.623722076,1.504639149,8.204892789,0.0
1398,6.67948127,-2.754718781,7.631761551,1.475598335,8.246796371,0.0
1399,6.684223562,-2.831181049,7.570679665,1.314869404,8.18899617,0.0
1400,6.688965853,-2.902628899,7.432905197,1.05881381,8.049498176,0.0
1401,6.693708093,-2.946378231,7.20860672,0.7245852947,7.821136706,0.0
1402,6.698450385,-2.94430232,6.890789032,0.2494618893,7.497607677,0.0
1403,6.703192676,-2.976405621,6.470162392,-0.3290882111,7.12953651,0.0
1404,6.707934968,-3.043931007,5.933448792,-1.501517534,6.835633507,0.0
1405,6.71267726,-3.10063839,5.267301559,-3.112496853,6.859013107,0.0
1406,6.717419551,-3.090268135,4.517433167,-4.467184067,7.064891581,0.0
1407,6.722161791,-3.020426035,3.731517792,-5.472388268,7.279713718,0.0
1408,6.726904082,-2.886761904,2.938017845,-6.144987106,7.397716518,0.0
1409,6.731646374,-2.691947699,2.141476631,-6.513807297,7.366287401,0.0
1410,6.736388666,-2.460211039,1.358422279,-6.617481232,7.189506749,0.0
1411,6.741130957,-2.208818674,0.5932426453,-6.508874893,6.899004939,0.0
1412,6.745873197,-1.965067148,-0.1472082138,-6.258202076,6.561116702,0.0
1413,6.750615489,-1.730302572,-0.8582992554,-5.941189766,6.247268238,0.0
1414,6.75535778,-1.496798754,-1.528046131,-5.615158081,6.008771236,0.0
1415,6.760100072,-1.28821826,-2.151702881,-5.289577007,5.853969293,0.0
1416,6.764842364,-1.109262228,-2.738959789,-4.959442139,5.773078013,0.0
1417,6.769584603,-0.9649019241,-3.29710722,-4.619867802,5.757180755,0.0
1418,6.774326895,-0.8384190798,-3.814109325,-4.290195942,5.80139274,0.0
1419,6.779069187,-0.7274218798,-4.287477016,-3.968242884,5.887151547,0.0
1420,6.783811478,-0.6222040653,-4.726704597,-3.656428576,6.008189759,0.0
1421,6.78855377,-0.5151728392,-5.126959801,-3.344958782,6.143278368,0.0
1422,6.79329601,-0.4084432125,-5.488184929,-3.038467646,6.286436614,0.0
1423,6.798038301,-0.3260347843,-5.815083504,-2.748978376,6.440370871,0.0
1424,6.802780593,-0.2295181751,-6.100175858,-2.49611783,6.595106391,0.0
1425,6.807522885,-0.106241703,-6.318962097,-2.316793442,6.731129262,0.0
1426,6.812265176,0.06417942047,-6.456398487,-2.212267637,6.825198057,0.0
1427,6.817007468,0.2832479477,-6.490344048,-2.166996241,6.848406235,0.0
1428,6.821749707,0.5259609818,-6.429887295,-2.155863285,6.802046169,0.0
1429,6.826491999,0.7791547775,-6.286616325,-2.16086483,6.693128103,0.0
1430,6.831234291,1.029557943,-6.055485725,-2.168661356,6.513984112,0.0
1431,6.835976582,1.239451766,-5.750726223,-2.165824175,6.268802687,0.0
1432,6.840718822,1.382479668,-5.389045715,-2.148507118,5.963987474,0.0
1433,6.845461114,1.450983047,-4.994402409,-2.117509842,5.615447903,0.0
1434,6.850203405,1.458645105,-4.581161022,-2.08087039,5.238769267,0.0
1435,6.854945697,1.433553934,-4.151648521,-2.053977489,4.848720022,0.0
1436,6.859687989,1.375100732,-3.722567558,-2.028172255,4.45666848,0.0
1437,6.864430228,1.272985697,-3.305850983,-1.997120857,4.066649115,0.0
1438,6.86917252,1.128959656,-2.896700859,-1.939989805,3.66455812,0.0
1439,6.873914812,0.9474341273,-2.519093513,-1.845095754,3.263103108,0.0
1440,6.878657103,0.7351364493,-2.199568748,-1.683197141,2.865603059,0.0
1441,6.883399343,0.4699878097,-1.969587803,-1.429152012,2.478435016,0.0
1442,6.888141635,0.1344907284,-1.846402168,-1.049991488,2.128325832,0.0
1443,6.892883926,-0.2645603418,-1.816078186,-0.5678976774,1.92110383,0.0
1444,6.897626218,-0.7008005381,-1.852624893,-0.0004580020905,1.980742436,0.0
1445,6.902368457,-1.173909068,-1.965699673,0.617205143,2.371282331,0.0
1446,6.907110749,-1.655083179,-2.136069298,1.215692759,2.96310669,0.0
1447,6.911853041,-2.084647655,-2.291966438,1.764068604,3.565221457,0.0
1448,6.916595332,-2.360065937,-2.381046295,2.229793072,4.026322122,0.0
1449,6.921337624,-2.496555805,-2.422739029,2.580055714,4.331182607,0.0
1450,6.926079864,-2.526102781,-2.460141182,2.776376724,4.487956953,0.0
1451,6.930822155,-2.475505829,-2.485837936,2.82492733,4.50419069,0.0
1452,6.935564447,-2.330115795,-2.458661079,2.716767788,4.34226682,0.0
1453,6.940306687,-2.159319401,-2.423420906,2.473181725,4.080717707,0.0
1454,6.945048978,-1.965866327,-2.389183521,2.118329525,3.749686426,0.0
1455,6.94979127,-1.721460819,-2.307908058,1.715771675,3.351677102,0.0
1456,6.954533562,-1.450882316,-2.196224689,1.278826237,2.92640717,0.0
1457,6.959275853,-1.217943549,-2.099417686,0.7964639664,2.554465886,0.0
1458,6.964018093,-1.002404094,-1.993381977,0.2986946106,2.251133968,0.0
1459,6.968760385,-0.7858463526,-1.882702351,-0.1816875935,2.048202386,0.0
1460,6.973502676,-0.5350543261,-1.724079609,-0.6379336119,1.914599938,0.0
1461,6.978244916,-0.2676361799,-1.526976585,-1.062929273,1.879655622,0.0
1462,6.982987207,-0.03807520866,-1.298660278,-1.437102199,1.937325726,0.0
1463,6.987729499,0.1733834743,-1.046351433,-1.738339782,2.03635418,0.0
1464,6.992471791,0.4206774235,-0.7532615662,-1.977759123,2.157754302,0.0
1465,6.99721403,0.6958164573,-0.4359884262,-2.147372723,2.299011975,0.0
1466,7.001956322,0.9910739064,-0.1326398849,-2.224525452,2.438920727,0.0
1467,7.006698614,1.301751733,0.1616659164,-2.171664715,2.537089095,0.0
1468,7.011440853,1.643505573,0.4564304352,-1.950642228,2.591224501,0.0
1469,7.016183145,2.008955956,0.7465257645,-1.522814989,2.629100652,0.0
1470,7.020925437,2.396393776,1.009954453,-0.9071257114,2.754194652,0.0
1471,7.025667728,2.821840763,1.229582787,-0.1471829414,3.081610284,0.0
1472,7.030409968,3.299351215,1.416881561,0.6938304901,3.657139941,0.0
1473,7.03515226,3.857507706,1.580644608,1.578979492,4.457799829,0.0
1474,7.039894551,4.481409073,1.722189903,2.478497505,5.402954305,0.0
1475,7.044636791,5.09562254,1.82841301,3.340787411,6.361550418,0.0
1476,7.049379082,5.674256325,1.895946503,4.108949661,7.257772751,0.0
1477,7.054121374,6.202777386,1.971848488,4.713793755,8.036322873,0.0
1478,7.058863666,6.68271637,2.072249413,5.117064476,8.668175388,0.0
1479,7.063605905,7.102843285,2.204014778,5.285056591,9.123589592,0.0
1480,7.068348197,7.436740398,2.36973381,5.197874546,9.377560764,0.0
1481,7.073090489,7.676991463,2.586518288,4.890731335,9.462849875,0.0
1482,7.077832728,7.78931427,2.854711533,4.466163158,9.421751859,0.0
1483,7.08257502,7.770397186,3.208280563,3.950099468,9.288456406,0.0
1484,7.087317312,7.610445976,3.678712845,3.402236938,9.111917051,0.0
1485,7.092059551,7.335428238,4.292635918,2.877743244,8.973106304,0.0
1486,7.096801843,6.948026657,5.05279541,2.328886986,8.90109715,0.0
1487,7.101544135,6.377428055,5.978343964,1.78972435,8.92274052,0.0
1488,7.106286374,5.51651144,7.037590027,1.369122028,9.04621838,0.0
1489,7.111028666,4.291342258,8.126317978,1.140954018,9.260369233,0.0
1490,7.115770957,2.682773352,9.07519722,1.153398037,9.53345711,0.0
1491,7.120513197,0.7266966701,9.712412834,1.380535603,9.836916675,0.0
1492,7.125255489,-1.464012027,9.876326561,1.692726612,10.12672113,0.0
1493,7.12999778,-3.667337418,9.471097946,1.915808678,10.33544304,0.0
1494,7.134740072,-5.720259666,8.471496582,1.70991993,10.36394959,0.0
1495,7.139482312,-7.699695587,6.937180519,0.207344532,10.36594315,0.0
1496,7.144224603,-9.355809212,5.145119667,-1.415418386,10.77064676,0.0
1497,7.148966843,-10.48449898,3.343829155,-2.708530188,11.33322761,0.0
1498,7.153709135,-11.12624645,1.642816544,-3.649561405,11.82419151,0.0
1499,7.158451426,-11.38755035,0.1322336197,-4.246553898,12.15430001,0.0
1500,7.163193666,-11.29105759,-1.102833271,-4.569485664,12.23047104,0.0
1501,7.167935957,-10.79949856,-1.939172745,-4.710028172,11.94043238,0.0
1502,7.172678249,-9.902956009,-2.308908463,-4.728941917,11.21438753,0.0
1503,7.177420489,-8.834321976,-2.290933609,-4.652859211,10.24415543,0.0
1504,7.18216278,-7.785124302,-2.010453224,-4.43556118,9.182825575,0.0
1505,7.186905072,-6.803935528,-1.525278091,-4.274267197,8.178592299,0.0
1506,7.191647312,-5.964741707,-0.9312486649,-4.252519131,7.384394807,0.0
1507,7.196389603,-5.264307022,-0.2834968567,-4.338961124,6.827875404,0.0
1508,7.201131843,-4.710245609,0.3339366913,-4.431864262,6.476059623,0.0
1509,7.205874135,-4.364483833,0.9204778671,-4.442770004,6.295570184,0.0
1510,7.210616426,-4.252522469,1.465928078,-4.361785889,6.265625955,0.0
1511,7.215358666,-4.33462286,1.950638771,-4.205265045,6.346510935,0.0
1512,7.220100957,-4.596957684,2.35982132,-3.972652435,6.517878794,0.0
1513,7.224843249,-4.94656086,2.666815758,-3.684873581,6.720019638,0.0
1514,7.229585489,-5.302660942,2.857042313,-3.377532482,6.90569544,0.0
1515,7.23432778,-5.610271454,2.944842339,-3.088912487,7.049015714,0.0
1516,7.23907002,-5.647283077,2.904294968,-2.80192852,6.941004167,0.0
1517,7.243812312,-5.493690968,2.74750042,-2.465172291,6.618645891,0.0
1518,7.248554603,-5.254523277,2.500732422,-2.084908009,6.181465758,0.0
1519,7.253296843,-4.842267036,2.157245636,-1.742560267,5.580123213,0.0
1520,7.258039135,-4.344534397,1.743632317,-1.42829442,4.894410867,0.0
1521,7.262781374,-3.830518007,1.283867836,-1.132117033,4.195577886,0.0
1522,7.267523666,-3.32665205,0.7803287506,-0.8609080911,3.523732334,0.0
1523,7.272265957,-2.830888271,0.2425851822,-0.6410593987,2.912684866,0.0
1524,7.277008197,-2.350678444,-0.2958631516,-0.477538228,2.416871306,0.0
1525,7.281750489,-1.895728111,-0.8398637772,-0.3389880657,2.100968621,0.0
1526,7.286492728,-1.47333765,-1.365597725,-0.2106713057,2.019891922,0.0
1527,7.29123502,-1.100679636,-1.866055489,-0.09476840496,2.168557077,0.0
1528,7.295977312,-0.7736003399,-2.336652756,-0.008023142815,2.461395531,0.0
1529,7.300719551,-0.5096452236,-2.789544106,0.03005897999,2.835876957,0.0
1530,7.305461843,-0.2413220406,-3.183938026,0.03587031364,3.193271733,0.0
1531,7.310204082,0.07849574089,-3.540925503,0.02816998959,3.541907473,0.0
1532,7.314946374,0.3082025051,-3.89176178,0.02369987965,3.904018471,0.0
1533,7.319688614,0.4191250801,-4.210951805,0.061460495,4.232204902,0.0
1534,7.324430905,0.4727113247,-4.491720676,0.139624238,4.518684052,0.0
1535,7.329173197,0.4969654083,-4.743927956,0.2413754463,4.77599091,0.0
1536,7.333915437,0.5005245209,-4.932056904,0.3523185253,4.969893202,0.0
1537,7.338657728,0.4848163128,-5.068485737,0.4604964256,5.112401733,0.0
1538,7.343399968,0.4876251221,-5.129530907,0.5536853075,5.182319269,0.0
1539,7.34814226,0.5332159996,-5.103229046,0.638749361,5.170615703,0.0
1540,7.352884499,0.651196003,-4.977442265,0.7177089453,5.070906611,0.0
1541,7.357626791,0.8351547718,-4.775951862,0.7783932686,4.910508707,0.0
1542,7.36236903,1.02282095,-4.53956461,0.8641087413,4.732915957,0.0
1543,7.367111322,1.146474838,-4.285271168,0.9313927293,4.532708457,0.0
1544,7.371853614,1.251484275,-4.017854214,0.979406476,4.320717813,0.0
1545,7.376595853,1.340454102,-3.746798992,1.024289846,4.109074053,0.0
1546,7.381338145,1.451749206,-3.443380833,1.065753579,3.885907617,0.0
1547,7.386080385,1.505615473,-3.172380447,1.076657891,3.672882774,0.0
1548,7.390822676,1.503627896,-2.936360836,1.080407858,3.471367591,0.0
1549,7.395564916,1.488643289,-2.704228401,1.103015661,3.278041128,0.0
1550,7.400307207,1.455699325,-2.487927914,1.151364088,3.103946696,0.0
1551,7.405049447,1.41883707,-2.27546072,1.191287518,2.934277777,0.0
1552,7.409791739,1.389495015,-2.059692383,1.229809046,2.772266112,0.0
1553,7.414533978,1.350202203,-1.850315094,1.300895929,2.634206172,0.0
1554,7.41927627,1.363276958,-1.644740105,1.366311789,2.535843446,0.0
1555,7.42401851,1.494891644,-1.435171127,1.418929935,2.511529285,0.0
1556,7.428760801,1.747095585,-1.204236031,1.485929489,2.590465952,0.0
1557,7.433503041,2.095467091,-0.944275856,1.575553656,2.786576491,0.0
1558,7.438245332,2.474536419,-0.676530838,1.701024055,3.078068762,0.0
1559,7.442987572,2.871176958,-0.4056539536,1.844752789,3.436760845,0.0
1560,7.447729864,3.272074699,-0.1292037964,1.993761301,3.833829754,0.0
1561,7.452472103,3.666136503,0.1360807419,2.113177299,4.233744575,0.0
1562,7.457214395,4.056632519,0.3902368546,2.172569275,4.61829075,0.0
1563,7.461956635,4.43228054,0.6045827866,2.184221268,4.978097396,0.0
1564,7.466698926,4.786574364,0.7719783783,2.143659353,5.301181017,0.0
1565,7.471441166,5.117544174,0.8900566101,2.04848671,5.58370459,0.0
1566,7.476183457,5.423298359,0.954120636,1.898464322,5.824661197,0.0
1567,7.480925697,5.685377598,0.9667139053,1.695515513,6.01105873,0.0
1568,7.485667989,5.902406693,0.9304618835,1.455821753,6.15008789,0.0
1569,7.490410228,6.05149889,0.8504247665,1.211997986,6.229991992,0.0
1570,7.495152468,6.11423254,0.7364301682,0.9581823349,6.232518138,0.0
1571,7.49989476,6.114955902,0.6173858643,0.7029844522,6.186116563,0.0
1572,7.504636999,6.046656609,0.5053462982,0.4746799469,6.086275715,0.0
1573,7.509379291,5.902855396,0.4145097733,0.3445850611,5.927415883,0.0
1574,7.51412153,5.801288605,0.4783220291,0.9009627104,5.890286516,0.0
1575,7.518863822,5.62120676,0.6388044357,1.849895239,5.952154983,0.0
1576,7.523606062,5.258479118,0.7736024857,2.799036503,6.007051589,0.0
1577,7.528348353,4.687612534,0.8347473145,3.542069435,5.934371932,0.0
1578,7.533090593,3.922132015,0.7910337448,3.992779732,5.652534292,0.0
1579,7.537832885,2.960296392,0.623085022,4.135181427,5.123603723,0.0
1580,7.542575124,1.872908473,0.3306016922,4.012420654,4.440338178,0.0
1581,7.547317364,0.7413483858,-0.05337047577,3.70611167,3.779908669,0.0
1582,7.552059655,-0.3878672123,-0.5006980896,3.298183441,3.358445111,0.0
1583,7.556801895,-1.476354361,-0.975982666,2.839772701,3.346113172,0.0
1584,7.561544187,-2.438740015,-1.431674004,2.35876894,3.682517376,0.0
1585,7.566286426,-3.241501093,-1.83446455,1.905182123,4.183576035,0.0
1586,7.571028718,-3.853024721,-2.184455395,1.510945678,4.679807872,0.0
1587,7.575770957,-4.306069374,-2.484065056,1.209047794,5.116112706,0.0
1588,7.580513197,-4.594581604,-2.721185207,1.033513784,5.439042176,0.0
1589,7.585255489,-4.716730118,-2.869186401,0.9761636853,5.606484563,0.0
1590,7.589997728,-4.675424099,-2.910996437,1.038986683,5.604728726,0.0
1591,7.59474002,-4.487985611,-2.843952179,1.22230196,5.451981376,0.0
1592,7.59948226,-4.205793381,-2.701440811,1.519527316,5.224504157,0.0
1593,7.604224499,-3.888202906,-2.51221323,1.882829666,4.997437814,0.0
1594,7.608966791,-3.551970959,-2.309814453,2.23214817,4.788969195,0.0
1595,7.61370903,-3.184844971,-2.113245487,2.522335291,4.579434386,0.0
1596,7.618451322,-2.771644115,-1.90782547,2.721876383,4.327865544,0.0
1597,7.623193562,-2.286844015,-1.690643311,2.82749033,4.010315688,0.0
1598,7.627935801,-1.730923891,-1.4539814,2.86213398,3.647186634,0.0
1599,7.632678093,-1.152166843,-1.194978714,2.872919321,3.318000601,0.0
1600,7.637420332,-0.5750932693,-0.913315773,2.926613092,3.119285521,0.0
1601,7.642162624,0.004614472389,-0.5847997665,3.020822763,3.076911151,0.0
1602,7.646904864,0.5790202618,-0.2260427475,3.160665274,3.221205482,0.0
1603,7.651647103,1.123125315,0.1366996765,3.34666729,3.532743866,0.0
1604,7.656389395,1.611287355,0.4651298523,3.538558722,3.915863959,0.0
1605,7.661131635,2.014789343,0.7113599777,3.667061806,4.244143188,0.0
1606,7.665873874,2.345252514,0.8634748459,3.652580261,4.425736179,0.0
1607,7.670616166,2.63347888,0.9288539886,3.433774948,4.425922631,0.0
1608,7.675358405,2.910631657,0.9484443665,3.011668682,4.294353456,0.0
1609,7.680100645,3.113544941,0.9366445541,2.483574867,4.091406756,0.0
1610,7.684842937,3.209083319,0.9028224945,1.901810527,3.837992637,0.0
1611,7.689585176,3.189848185,0.8847980499,1.365214229,3.580755356,0.0
1612,7.694327416,3.04763937,0.9032564163,0.9619897604,3.321054378,0.0
1613,7.699069707,2.802864313,0.9933567047,0.5991053581,3.033435862,0.0
1614,7.703811947,2.568309784,1.188540459,0.0441532135,2.830334446,0.0
1615,7.708554187,2.435278416,1.496321678,-0.57775563,2.916052313,0.0
1616,7.713296478,2.490227222,1.917394638,-1.183693528,3.358387141,0.0
1617,7.718038718,2.611938,2.370787621,-1.740606666,3.933518224,0.0
1618,7.722780957,2.647631884,2.803730011,-2.231727123,4.45549801,0.0
1619,7.727523249,2.627047062,3.242418289,-2.603615284,4.91868531,0.0
1620,7.732265489,2.566403389,3.710858345,-2.925272465,5.377184673,0.0
1621,7.737007728,2.479934692,4.199421883,-3.12110424,5.790208278,0.0
1622,7.74175002,2.380260706,4.731939316,-3.19162488,6.18412161,0.0
1623,7.74649226,2.241960526,5.310598373,-3.137175322,6.562827979,0.0
1624,7.751234499,2.112823725,5.95669651,-2.957636356,6.978099327,0.0
1625,7.755976791,2.02657032,6.641199112,-2.622936726,7.422419415,0.0
1626,7.76071903,1.966429472,7.400696754,-1.630497694,7.829155769,0.0
1627,7.76546127,1.843607664,8.164477348,-0.4439680576,8.381806919,0.0
1628,7.770203562,1.755177259,8.820302963,0.4107415676,9.002616298,0.0
1629,7.774945801,1.74951458,9.278079987,0.772008419,9.473096986,0.0
1630,7.779688041,1.775195241,9.514742851,0.7224209309,9.705850899,0.0
1631,7.78443028,1.763709068,9.557235718,0.4076519012,9.72715808,0.0
1632,7.789172572,1.70937264,9.429918289,-0.04743266106,9.583713457,0.0
1633,7.793914812,1.570821047,9.166556358,-0.5678446293,9.317493319,0.0
1634,7.798657051,1.330589056,8.786295891,-1.085350633,8.952510749,0.0
1635,7.803399291,0.9690029025,8.303404808,-1.572332978,8.506334641,0.0
1636,7.808141582,0.5223456621,7.725049019,-2.022647858,8.002520334,0.0
1637,7.812883822,0.02509224415,7.051250458,-2.468277931,7.470820476,0.0
1638,7.817626062,-0.5143713951,6.283882141,-2.726606607,6.86921657,0.0
1639,7.822368301,-1.116023779,5.458091736,-2.808172464,6.238758455,0.0
1640,7.827110593,-1.642843723,4.655123711,-2.813144684,5.681803875,0.0
1641,7.831852832,-2.127622843,3.863324165,-2.864311695,5.258928984,0.0
1642,7.836595072,-2.726255655,3.027381897,-2.848780155,4.971223131,0.0
1643,7.841337312,-3.330924034,2.168796539,-2.807156801,4.866093162,0.0
1644,7.846079603,-3.95592308,1.287535667,-2.708277464,4.964055029,0.0
1645,7.850821843,-4.636228561,0.3786277771,-2.636301517,5.346780336,0.0
1646,7.855564082,-5.266881943,-0.5316123962,-2.584147215,5.89071082,0.0
1647,7.860306374,-5.773248196,-1.419147015,-2.534984589,6.46301167,0.0
1648,7.865048614,-6.13826704,-2.252658844,-2.556093216,7.020427811,0.0
1649,7.869790853,-6.315840721,-3.022237778,-2.662247896,7.490749566,0.0
1650,7.874533093,-6.266150951,-3.700966835,-2.839753389,7.811914143,0.0
1651,7.879275332,-5.968024731,-4.283495426,-3.065065622,7.959917055,0.0
1652,7.884017624,-5.496406555,-4.757459641,-3.309788942,7.987403213,0.0
1653,7.888759864,-4.936659813,-5.141944885,-3.530831575,7.95468283,0.0
1654,7.893502103,-4.372561455,-5.456297874,-3.701594114,7.911528244,0.0
1655,7.898244343,-3.813404083,-5.722103119,-3.841188431,7.876499436,0.0
1656,7.902986582,-3.265922785,-5.941698074,-3.971290112,7.857555141,0.0
1657,7.907728874,-2.75601244,-6.115146637,-4.055853367,7.838403504,0.0
1658,7.912471114,-2.285710096,-6.256977558,-4.080103397,7.811624834,0.0
1659,7.917213353,-1.852481127,-6.352993965,-4.04857254,7.757780498,0.0
1660,7.921955593,-1.451330543,-6.396237373,-3.965618134,7.664485636,0.0
1661,7.926697832,-1.021808863,-6.382072449,-3.840374947,7.518206024,0.0
1662,7.931440124,-0.5509333611,-6.320086956,-3.696518421,7.342429784,0.0
1663,7.936182364,-0.08836984634,-6.236631393,-3.531516314,7.167634745,0.0
1664,7.940924603,0.3298723698,-6.138989449,-3.347690821,7.000217215,0.0
1665,7.945666843,0.6819007993,-6.017657757,-3.154761314,6.828595209,0.0
1666,7.950409082,0.9819326997,-5.879878998,-2.952749014,6.652510473,0.0
1667,7.955151374,1.22745049,-5.723243237,-2.753856182,6.468838514,0.0
1668,7.959893614,1.423062444,-5.530984879,-2.565523386,6.260895358,0.0
1669,7.964635853,1.549161196,-5.317576408,-2.366217613,6.022914997,0.0
1670,7.969378093,1.621884346,-5.078330994,-2.151256323,5.748726666,0.0
1671,7.974120332,1.621724963,-4.822907448,-1.92542851,5.440377106,0.0
1672,7.978862572,1.563037753,-4.551280499,-1.700853229,5.103934061,0.0
1673,7.983604812,1.462572694,-4.282559872,-1.468092203,4.757597362,0.0
1674,7.988347103,1.325343728,-4.009465218,-1.224984407,4.396923257,0.0
1675,7.993089343,1.168638706,-3.722346783,-0.9620110989,4.01833888,0.0
1676,7.997831582,1.009981632,-3.428249836,-0.6768908501,3.637463547,0.0
1677,8.002573822,0.864618063,-3.127090931,-0.374266386,3.265935917,0.0
1678,8.007316062,0.7282989621,-2.833139896,-0.05650281906,2.925797946,0.0
1679,8.012058301,0.59163481,-2.551142216,0.2764668465,2.633399375,0.0
1680,8.016800541,0.4473772645,-2.276367664,0.6273262501,2.403234151,0.0
1681,8.021542832,0.2976191044,-2.008851051,0.979449749,2.254635556,0.0
1682,8.026285072,0.1536798477,-1.736634731,1.308764219,2.179995749,0.0
1683,8.031027312,0.01685726643,-1.452575684,1.583836317,2.149138842,0.0
1684,8.035769551,-0.1117745638,-1.151873589,1.789610624,2.13119978,0.0
1685,8.040511791,-0.2265686989,-0.8345212936,1.903671265,2.090866674,0.0
1686,8.04525403,-0.331297636,-0.5051660538,1.924638033,2.017221461,0.0
1687,8.04999627,-0.4151829481,-0.1754989624,1.848283052,1.902452892,0.0
1688,8.05473851,-0.4814484119,0.1453304291,1.665208578,1.7394922,0.0
1689,8.059480749,-0.5118215084,0.4338474274,1.408962488,1.560564045,0.0
1690,8.064223041,-0.4852778912,0.709446907,1.138008118,1.426138851,0.0
1691,8.06896528,-0.3728907108,0.9818544388,0.9045126438,1.38608396,0.0
1692,8.07370752,-0.2130255699,1.188819885,0.7351262569,1.413889397,0.0
1693,8.07844976,-0.01743924618,1.325298309,0.6721053123,1.486083876,0.0
1694,8.083191999,0.2142088413,1.376656532,0.7291755676,1.572502987,0.0
1695,8.087934239,0.4799607992,1.349839211,0.8673839569,1.674748695,0.0
1696,8.092676478,0.7754715085,1.285263062,1.071631908,1.844356838,0.0
1697,8.097418718,1.057545543,1.142004013,1.302454948,2.029523253,0.0
1698,8.102160957,1.321275711,0.9343175888,1.512732029,2.215192329,0.0
1699,8.106903197,1.598016381,0.7052240372,1.686386585,2.4279409,0.0
1700,8.111645437,1.890665293,0.4881267548,1.838556767,2.682009314,0.0
1701,8.116387676,2.216919184,0.3020868301,1.981988907,2.989024447,0.0
1702,8.121129916,2.57080698,0.1733369827,2.122230291,3.338106596,0.0
1703,8.125872155,2.917335272,0.08976268768,2.259954214,3.691381243,0.0
1704,8.130614395,3.235377789,0.03443527222,2.393258572,4.02449274,0.0
1705,8.135356635,3.505846977,-0.007073402405,2.503036737,4.30769149,0.0
1706,8.140098874,3.709296465,-0.03725624084,2.577339888,4.516962385,0.0
1707,8.144841166,3.86206007,-0.05610466003,2.599089861,4.65552616,0.0
1708,8.149583353,3.961152554,-0.06596088409,2.560654879,4.717206143,0.0
1709,8.154325049,4.030241966,-0.06658554077,2.456447601,4.720319773,0.0
1710,8.159067341,4.095912457,-0.03373146057,2.288023233,4.691768001,0.0
1711,8.16380958,4.187759399,0.06170940399,2.071240425,4.67238416,0.0
1712,8.16855182,4.329010963,0.2368507385,1.838956118,4.709372973,0.0
1713,8.173294059,4.505021095,0.4872322083,1.609837532,4.808761501,0.0
1714,8.178036299,4.674467564,0.8177652359,1.410075426,4.950525194,0.0
1715,8.182778538,4.80551672,1.211898804,1.236909866,5.107997227,0.0
1716,8.187520778,4.907181263,1.734362602,1.090137482,5.317597325,0.0
1717,8.192263018,4.939758301,2.378073692,0.9669616222,5.566997515,0.0
1718,8.197005257,4.813802719,3.126316071,0.8499677181,5.802498937,0.0
1719,8.201747497,4.435690403,3.974153519,0.7600581646,6.003909889,0.0
1720,8.206489736,3.760915756,4.909279823,0.6920216084,6.22289399,0.0
1721,8.211231976,2.790397644,5.890394211,0.6748664379,6.552748101,0.0
1722,8.215974216,1.595683455,6.84018898,0.7550806999,7.064314393,0.0
1723,8.220716455,0.2836198807,7.671704292,0.9608955383,7.73684737,0.0
1724,8.225458695,-1.010700226,8.257349014,1.299679041,8.419886775,0.0
1725,8.230200934,-2.234694481,8.474542618,1.745381594,8.936335318,0.0
1726,8.234943122,-3.357058525,8.30156517,2.199549913,9.2208376,0.0
1727,8.239685361,-4.329352379,7.807703018,2.60665822,9.300440071,0.0
1728,8.244427601,-5.155360222,7.049919128,3.00528717,9.236387265,0.0
1729,8.249169841,-5.777788639,6.089080811,3.588272572,9.128825046,0.0
1730,8.25391208,-6.019602299,5.050499916,4.432512283,9.021658738,0.0
1731,8.25865432,-5.901309967,4.068333626,4.92482996,8.696594043,0.0
1732,8.263396559,-5.7701931,3.13852787,4.870335579,8.177142181,0.0
1733,8.268138799,-5.803581238,2.300236702,4.29775238,7.579137127,0.0
1734,8.272881038,-6.01611805,1.585227013,3.36669755,7.073985684,0.0
1735,8.277623278,-6.432886124,0.9637327194,1.439058065,6.661958627,0.0
1736,8.282365518,-7.021356583,0.4879026413,-1.637959361,7.226368944,0.0
1737,8.287107757,-7.550037384,0.2066926956,-4.55416441,8.81964851,0.0
1738,8.291849997,-7.81281805,0.1281919479,-6.85552597,10.39494086,0.0
1739,8.296592236,-7.783664227,0.2242164612,-8.353487968,11.42000276,0.0
1740,8.301334476,-7.545197964,0.3702602386,-8.979532242,11.73452616,0.0
1741,8.306076716,-7.245371819,0.4867773056,-8.906411171,11.49158496,0.0
1742,8.310818955,-6.940639973,0.5801448822,-8.340232849,10.86593463,0.0
1743,8.315561143,-6.63951683,0.6833400726,-7.494678497,10.03595253,0.0
