"Time (s)","Linear Acceleration x (m/s^2)","Linear Acceleration y (m/s^2)","Linear Acceleration z (m/s^2)","Absolute acceleration (m/s^2)"
4.983069700E-2,0.000000000E0,0.000000000E0,0.000000000E0,0.000000000E0
5.457293700E-2,-6.470227242E-2,3.159761429E-3,-1.128206253E-1,1.300955866E-1
5.931517600E-2,-1.919293404E-1,-7.681846619E-3,-2.476415634E-1,3.134042539E-1
6.405741600E-2,-4.022357464E-1,-6.306576729E-2,-4.190502167E-1,5.842721718E-1
6.879965500E-2,-3.905675411E-1,-1.034998894E-1,-5.305595398E-1,6.668947867E-1
7.354194700E-2,-1.105804443E-1,-1.361370087E-3,-4.963426590E-1,5.085134444E-1
7.828418700E-2,7.788658142E-3,5.574750900E-2,-1.589174271E-1,1.685918046E-1
8.302642600E-2,-7.547855377E-2,-2.704954147E-1,2.846298218E-1,3.998486175E-1
8.776866600E-2,-1.104917526E-1,-4.613931179E-1,2.219953537E-1,5.238071914E-1
9.251090500E-2,-1.168742180E-1,-4.937508106E-1,2.287511826E-1,5.565757355E-1
9.725314500E-2,3.341507912E-2,-3.051824570E-1,-1.536178589E-2,3.073904423E-1
1.019953850E-1,1.162526608E-1,-1.644420624E-1,-7.874584198E-2,2.162331627E-1
1.067376240E-1,1.341707706E-1,-1.982388496E-1,-3.994369507E-2,2.426848491E-1
1.114798640E-1,-3.542542458E-2,-2.636842728E-1,5.421352386E-2,2.715206485E-1
1.162221030E-1,-2.261919975E-1,-3.933370113E-1,1.473464966E-1,4.770616462E-1
1.209643430E-1,-2.883687019E-1,-4.116880894E-1,1.482973099E-1,5.240569466E-1
1.257065820E-1,-1.691222191E-1,-4.065461159E-1,1.886205673E-1,4.790196110E-1
1.304488220E-1,-9.184694290E-2,-3.858480453E-1,3.185691833E-1,5.087247779E-1
1.351910620E-1,3.970456123E-2,-2.615277767E-1,5.728607178E-1,6.309854453E-1
1.399333010E-1,7.309460640E-1,2.732896805E-2,4.091701508E-1,8.381224453E-1
1.446755410E-1,1.050539970E0,2.028679848E-1,4.276838303E-1,1.152260000E0
1.494177800E-1,1.135326862E0,4.358358383E-1,3.343629837E-1,1.261236920E0
1.541600200E-1,1.291486979E0,7.002320290E-1,5.573177338E-2,1.470159699E0
1.589022600E-1,1.457654715E0,9.530756474E-1,-3.097343445E-1,1.768910914E0
1.636444990E-1,1.592978120E0,1.146275997E0,-6.933536530E-1,2.081409916E0
1.683867390E-1,1.708052397E0,1.297392368E0,-1.093634129E0,2.407634847E0
1.731289780E-1,1.713643789E0,1.310025215E0,-1.437679291E0,2.592231248E0
1.778712180E-1,1.698685169E0,1.235879421E0,-1.735617638E0,2.724939969E0
1.826134570E-1,1.596678734E0,1.041248083E0,-1.955255032E0,2.730678082E0
1.873556970E-1,1.357116461E0,8.156273365E-1,-2.088162899E0,2.620579580E0
1.920979370E-1,1.046876550E0,5.874369144E-1,-2.042254925E0,2.368931788E0
1.968401760E-1,8.950521946E-1,3.121702671E-1,-1.931846142E0,2.151882483E0
2.015824160E-1,7.024569511E-1,1.596260071E-2,-1.674566269E0,1.816004615E0
2.063246550E-1,4.320151806E-1,-4.454283714E-1,-1.322332382E0,1.460686989E0
2.110668950E-1,1.905734539E-1,-7.939221859E-1,-1.030413628E0,1.314679779E0
2.158091350E-1,-8.633399010E-2,-1.029088736E0,-8.244366646E-1,1.321428393E0
2.205513740E-1,-2.936885357E-1,-1.175725698E0,-6.573758125E-1,1.378668500E0
2.252936140E-1,-4.431684017E-1,-1.236740351E0,-5.301542282E-1,1.416682192E0
2.300358530E-1,-6.650619507E-1,-1.217150450E0,-4.927701950E-1,1.471932431E0
2.347780930E-1,-8.976199627E-1,-1.121512890E0,-5.336146355E-1,1.532402473E0
2.395203320E-1,-1.101504087E0,-1.072890043E0,-6.346321106E-1,1.663478949E0
2.442625720E-1,-1.228510857E0,-9.692902565E-1,-7.876024246E-1,1.751879021E0
2.490048120E-1,-1.156998158E0,-9.377238750E-1,-8.865523338E-1,1.733189500E0
2.537470510E-1,-7.708659172E-1,-8.638896942E-1,-1.171960831E0,1.647431897E0
2.584892910E-1,-3.456861973E-1,-7.832396030E-1,-1.288950920E0,1.547371222E0
2.632315300E-1,-2.106056213E-1,-6.928906441E-1,-1.058301449E0,1.282362713E0
2.679737180E-1,5.733609200E-2,-6.519737244E-1,-9.838452339E-1,1.181655030E0
2.727160100E-1,4.940123558E-1,-5.986394882E-1,-1.034500122E0,1.293293450E0
2.774581970E-1,8.141218424E-1,-4.438657761E-1,-1.121233940E0,1.454983419E0
2.822004370E-1,1.014961481E0,-2.905015945E-1,-1.142614365E0,1.555668850E0
2.869426760E-1,1.136162758E0,-1.316399574E-1,-1.010685444E0,1.526328915E0
2.916849160E-1,1.179287314E0,5.807614326E-2,-6.505408287E-1,1.348070762E0
2.964271550E-1,1.198441505E0,1.553351879E-1,-1.031246185E-1,1.212858503E0
3.011693950E-1,1.242987871E0,1.355428696E-1,3.920297623E-1,1.310373249E0
3.059116350E-1,1.281108260E0,7.560253143E-2,7.992630005E-1,1.511878124E0
3.106538740E-1,1.207939506E0,3.917098045E-2,1.125537872E0,1.651510738E0
3.153961140E-1,1.016840100E0,9.082078934E-3,1.455102921E0,1.775210067E0
3.201383530E-1,7.280666828E-1,-4.290509224E-2,1.666156769E0,1.818790895E0
3.248805930E-1,4.789259434E-1,-1.190876961E-1,1.617085457E0,1.690715030E0
3.296228320E-1,4.186618328E-1,-2.237915993E-1,1.455540657E0,1.530999352E0
3.343650720E-1,4.352664948E-1,-2.950634956E-1,1.154686928E0,1.268787330E0
3.391073120E-1,3.711631298E-1,-3.022649288E-1,8.291769028E-1,9.574238832E-1
3.438495510E-1,2.242033482E-1,-3.045823574E-1,4.103336334E-1,5.580423322E-1
3.485917910E-1,-1.081049442E-1,-3.671784401E-1,-8.444499969E-2,3.919663810E-1
3.533340300E-1,-4.784579277E-1,-3.888690472E-1,-5.319089890E-1,8.142900570E-1
3.580762700E-1,-1.064053774E0,-3.173511028E-1,-6.122779846E-1,1.267993094E0
3.628185100E-1,-1.231133223E0,-2.387993336E-1,-9.492778778E-1,1.572845391E0
3.675607490E-1,-7.786624432E-1,-5.088195801E-1,-1.372078896E0,1.657652877E0
3.723029890E-1,-2.377886772E-1,-6.567814350E-1,-1.778658390E0,1.910897950E0
3.770452280E-1,2.193381786E-1,-6.350982189E-1,-1.967278957E0,2.078856772E0
3.817874680E-1,3.936789036E-1,-3.514635563E-1,-1.649433136E0,1.731802350E0
3.865296550E-1,4.958672523E-1,1.268155575E-1,-6.472935677E-1,8.252002668E-1
3.912718950E-1,6.994261742E-1,5.019288063E-1,5.931568146E-2,8.629298058E-1
3.960141350E-1,8.641102314E-1,4.094347954E-1,8.568191528E-2,9.600337152E-1
4.007563740E-1,1.313521981E0,4.895954132E-1,8.332490921E-1,1.630750659E0
4.054986140E-1,6.319962025E0,1.345108032E0,1.132800961E1,1.304128204E1
4.102408530E-1,8.437480927E0,3.078410387E0,1.518964291E1,1.764632955E1
4.149830930E-1,8.100379944E0,4.409564495E0,1.181391048E1,1.498762474E1
4.197253320E-1,5.144476891E0,4.173140526E0,7.048135757E0,9.672484788E0
4.244675720E-1,1.277936459E0,2.577646494E0,1.986866951E0,3.496430082E0
4.292098120E-1,-1.629025102E0,8.456254005E-1,-1.628828049E0,2.453953119E0
4.339520510E-1,-3.003300667E0,-6.043348312E-1,-3.553359509E0,4.691630770E0
4.386942910E-1,-2.853004456E0,-1.034189820E0,-5.189777374E0,6.011902544E0
4.434365300E-1,-2.335309982E0,-9.749844074E-1,-5.212393761E0,5.794248530E0
4.481787700E-1,-8.620541096E-1,-6.884508133E-1,-4.607528210E0,4.737765086E0
4.529209570E-1,3.776195049E-1,-5.548367500E-1,-2.694570065E0,2.776895414E0
4.576631970E-1,1.320469379E0,-1.791937351E-1,-6.956014633E-1,1.503200310E0
4.624054370E-1,1.778742790E0,1.546413898E-1,5.120239258E-1,1.857419816E0
4.671476760E-1,9.161145687E-1,2.159674168E-1,1.094408035E0,1.443480785E0
4.718899160E-1,-6.241331100E-1,-2.002501488E-2,1.302836418E0,1.444758067E0
4.766321550E-1,-1.956487656E0,-4.879851341E-1,1.418552399E0,2.465413626E0
4.813743950E-1,-2.541239738E0,-1.021241903E0,1.425971985E0,3.087754934E0
4.861166350E-1,-2.400281429E0,-1.463779807E0,1.394763947E0,3.138370394E0
4.908588740E-1,-1.971643686E0,-1.764953136E0,1.263438225E0,2.932356484E0
4.956011140E-1,-1.679093361E0,-1.689175487E0,1.075157166E0,2.613164991E0
5.003433530E-1,-1.552927971E0,-1.313332796E0,8.442564011E-1,2.202089278E0
5.050855930E-1,-1.378167868E0,-8.056963682E-1,7.201681137E-1,1.751323905E0
5.098277800E-1,-8.063235283E-1,-2.092537880E-1,6.660881042E-1,1.066591835E0
5.145700200E-1,6.464004517E-2,3.629448414E-1,4.962072372E-1,6.181657671E-1
5.193122600E-1,7.371977568E-1,8.157358170E-1,1.947755814E-1,1.116612280E0
5.240544990E-1,2.008676052E0,1.242455721E0,-9.972286224E-2,2.363984000E0
5.287967390E-1,2.328760862E0,1.405340433E0,-3.045597076E-1,2.736944556E0
5.335389780E-1,2.390719891E0,1.348229647E0,-3.945512772E-1,2.772892981E0
5.382812180E-1,2.450150013E0,1.131025553E0,-5.579767227E-1,2.755683565E0
5.430234570E-1,2.487133026E0,8.931763172E-1,-6.872692108E-1,2.730555546E0
5.477656970E-1,2.450360298E0,6.846020222E-1,-7.114629745E-1,2.641803377E0
5.525078850E-1,2.248268127E0,4.713146687E-1,-6.431970596E-1,2.385487277E0
5.572501240E-1,2.000993490E0,2.053077221E-1,-5.756158829E-1,2.092238001E0
5.619923640E-1,1.789426446E0,-7.098245621E-2,-5.179738998E-1,1.864237773E0
5.667346030E-1,1.740540147E0,-4.645100832E-1,-5.503578186E-1,1.883651600E0
5.714768430E-1,-7.854506969E-1,-1.644681573E0,-7.611589432E-1,1.975164097E0
5.762190820E-1,-2.669332886E1,-3.967990875E0,2.028866768E0,2.706279840E1
5.809613220E-1,-1.506424999E1,-1.371170044E0,2.488536835E0,1.532985814E1
5.857035620E-1,-2.600354910E0,-4.393349886E-1,4.655266762E0,5.350361625E0
5.904457490E-1,-7.918694019E-1,6.186838150E-1,6.245457649E0,6.325785964E0
5.951879890E-1,-1.978361607E0,1.364877701E0,5.750717163E0,6.232780573E0
5.999302280E-1,-2.478932619E0,3.106499195E0,3.850392342E0,5.533621361E0
6.046724680E-1,-1.006391048E0,3.171754599E0,1.693963051E0,3.733947106E0
6.094147070E-1,-1.112595797E0,2.535724640E0,-5.634422302E-1,2.825815989E0
6.141569470E-1,-1.160419226E0,1.823737144E0,-1.705619812E0,2.753493943E0
6.188991870E-1,-3.053209782E-1,1.164422750E0,-1.663009644E0,2.052974017E0
6.236414260E-1,8.245815039E-1,6.533215046E-1,-1.045369148E0,1.483091468E0
6.283836660E-1,1.925592780E0,1.943020821E-1,-5.135059357E-2,1.936052101E0
6.331258530E-1,2.515926600E0,-3.724575043E-1,1.247504234E0,2.832821572E0
6.378680930E-1,1.586603880E0,-4.557411671E-1,-3.961181641E-2,1.651236197E0
6.426103320E-1,2.468812466E-1,-3.163924217E-1,-1.375123024E0,1.432486595E0
6.473525720E-1,9.519338608E-2,-6.535243988E-2,-1.231028557E0,1.236431975E0
6.520948120E-1,2.428591251E-1,7.939434052E-2,-2.640647888E-1,3.674428237E-1
6.568370510E-1,4.065947533E-1,-3.580880165E-2,4.487218857E-1,6.065912086E-1
6.615792390E-1,7.726074457E-1,-2.458341122E-1,4.506788254E-1,9.276141868E-1
6.663214780E-1,1.161986589E0,-5.971989632E-1,-1.138172150E-1,1.311416713E0
6.710637180E-1,1.094857335E0,-9.469344616E-1,-3.554067612E-1,1.490540648E0
6.758059570E-1,1.073037744E0,-1.210933447E0,-4.766683578E-1,1.686707602E0
6.805481970E-1,1.213335276E0,-1.092449188E0,-3.953981400E-1,1.679871248E0
6.852904370E-1,1.263191223E0,-6.416468620E-1,-1.197376251E-1,1.421864923E0
6.900326760E-1,1.030121684E0,7.182216644E-2,2.810249329E-1,1.070179480E0
6.947748640E-1,7.074428797E-1,8.951950073E-1,6.027154922E-1,1.290393542E0
6.995171030E-1,6.865662336E-1,1.556536198E0,3.280591965E-1,1.732570623E0
7.042593430E-1,5.943032503E-1,1.622693300E0,-6.250228882E-1,1.837657071E0
7.090015820E-1,5.919671059E-2,1.136566639E0,-1.753585815E0,2.090538492E0
7.137438220E-1,-5.703810453E-1,4.826841354E-1,-2.441375732E0,2.553161565E0
7.184860620E-1,-8.213196993E-1,-9.299373627E-2,-2.610930443E0,2.738644128E0
7.232282490E-1,-7.861213684E-1,-4.245998859E-1,-2.632026672E0,2.779538860E0
7.279704890E-1,-5.832340717E-1,-4.809806347E-1,-2.467525005E0,2.580733230E0
7.327127280E-1,-5.701915026E-1,-3.622918129E-1,-2.156339169E0,2.259684119E0
7.374549680E-1,-9.004395008E-1,-2.780609131E-1,-1.665439606E0,1.913582568E0
7.421972070E-1,-1.335525036E0,-1.674208641E-1,-1.192556381E0,1.798290185E0
7.469393950E-1,-1.597908378E0,-4.532098770E-2,-8.725094795E-1,1.821163905E0
7.516816350E-1,-1.739682555E0,1.577596664E-1,-9.158458710E-1,1.972348135E0
7.564238740E-1,-2.013799429E0,3.074789047E-2,-7.853302956E-1,2.161730151E0
7.611661140E-1,-1.777656198E0,3.731775284E-2,-3.831334114E-1,1.818858263E0
7.659083530E-1,-9.130196571E-1,7.197875977E-1,-1.962166309E0,2.280744551E0
7.706505930E-1,-5.863193274E-1,1.009205341E0,-1.693697453E0,2.056909535E0
7.753927800E-1,-2.181708813E-2,1.005715370E0,-1.132281303E0,1.514595768E0
7.801350200E-1,4.166273117E0,6.179022789E-1,-6.463582993E0,7.714761177E0
7.848772600E-1,7.664501190E0,4.480075836E-2,-1.428452492E1,1.621092958E1
7.896194990E-1,2.149502754E0,-4.372010231E-1,-6.179255962E0,6.557035235E0
7.943617390E-1,-1.744796753E0,-1.014841557E0,3.596394539E0,4.124108725E0
7.991039260E-1,-2.200890064E0,-1.372035742E0,6.543030739E0,7.038298829E0
8.038461660E-1,-1.948034048E0,-1.461537838E0,5.067679405E0,5.622482019E0
8.085884050E-1,-1.664010286E0,-2.117293119E0,2.426692963E0,3.625010224E0
8.133306450E-1,-6.975131035E-1,-2.098416090E0,2.199068069E-1,2.222213676E0
8.180728850E-1,-3.311253786E-1,-1.734873533E0,-8.400416374E-1,1.955786324E0
8.228150720E-1,-3.710581064E-1,-1.102827549E0,-5.210547447E-1,1.274915985E0
8.275573120E-1,-4.058440924E-1,-5.707778931E-1,1.109218597E-1,7.090842612E-1
8.322995510E-1,-5.507359505E-1,-3.987660408E-1,5.316467285E-1,8.631180026E-1
8.370417910E-1,-8.091372252E-1,-2.236857414E-1,6.835842133E-1,1.082601375E0
8.417840300E-1,-1.285151005E0,-7.005977631E-2,4.897375107E-1,1.377085439E0
8.465262180E-1,-1.836681843E0,-1.311779022E-1,2.535629272E-2,1.841534897E0
8.512684570E-1,-2.014527798E0,-7.727670670E-2,-1.323060989E-1,2.020346218E0
8.560106970E-1,-2.093044758E0,-2.032232285E-2,1.363554001E-1,2.097580070E0
8.607529370E-1,-2.199717045E0,2.206950188E-1,1.236201286E0,2.532914327E0
8.654951760E-1,-1.895669818E0,1.497631073E-1,1.690536499E0,2.544387294E0
8.702373640E-1,-1.895429254E0,-2.910666466E-1,1.766211510E0,2.607081691E0
8.749796030E-1,-1.494909763E0,-6.760654449E-1,2.066527367E0,2.638627492E0
8.797218430E-1,-1.320261359E0,-1.149439096E0,1.630739212E0,2.392406878E0
8.844640820E-1,-1.923018456E0,-1.324177265E0,1.213302612E-1,2.337983414E0
8.892062700E-1,-1.627246499E0,-1.211369514E0,-4.417943954E-1,2.076181485E0
8.939485100E-1,-7.146050930E-1,-1.237525463E0,2.840566635E-1,1.456989327E0
8.986907490E-1,-3.215020895E-1,-1.120811224E0,8.090476990E-1,1.419203852E0
9.034329890E-1,-5.969151258E-1,-1.034868240E0,8.416461945E-1,1.461378890E0
9.081751760E-1,-9.642852545E-1,-1.109475613E0,6.081914902E-1,1.590810823E0
9.129174160E-1,-1.132937789E0,-1.030643463E0,2.409372330E-1,1.550427274E0
9.176596550E-1,-1.809823632E0,-1.228742123E0,-3.603782654E-1,2.217011790E0
9.224018950E-1,-2.335849285E0,-1.470121384E0,-1.141086102E0,2.986557593E0
9.271440820E-1,-2.119590998E0,-1.165954590E0,-8.766880035E-1,2.573071697E0
9.318863220E-1,-1.432475448E0,-5.022397041E-1,-3.969898224E-1,1.569022482E0
9.366285620E-1,-7.995309830E-1,2.790551186E-1,-1.322031021E-1,8.570876339E-1
9.413708010E-1,-5.526975393E-1,9.324531555E-1,-1.507043839E-1,1.094374373E0
9.461129890E-1,-6.569939852E-1,1.287235737E0,-2.248506546E-1,1.462591794E0
9.508552280E-1,-6.761237383E-1,1.435491085E0,-1.349954605E-1,1.592482885E0
9.555974680E-1,-3.419210911E-1,1.852244854E0,7.796001434E-2,1.885152194E0
9.603397070E-1,3.934391737E-1,2.819537163E0,3.257389069E-1,2.865430165E0
9.650818950E-1,4.862484932E-1,3.091580391E0,2.939796448E-1,3.143362999E0
9.698241350E-1,-1.062406301E-1,2.465373993E0,1.984434128E-1,2.475628362E0
9.745663740E-1,-3.290237188E-1,2.123116493E0,1.391191483E-1,2.152959449E0
9.793086140E-1,-1.357934475E-1,2.083443642E0,4.145240784E-2,2.088275741E0
9.840508010E-1,1.262345314E-1,1.764741898E0,-1.950397491E-1,1.779968996E0
9.887930410E-1,2.717084885E-1,1.045244694E0,-6.347799301E-1,1.252720053E0
9.935352800E-1,2.660442591E-1,3.130965233E-1,-1.070104122E0,1.146268648E0
9.982774680E-1,2.088034153E-1,-3.201208115E-1,-1.058013916E0,1.124930952E0
1.003019707E0,-1.362705231E-2,-8.484706879E-1,-8.884725571E-1,1.228605587E0
1.007761947E0,-2.927212715E-1,-1.194675446E0,-6.783924103E-1,1.404689085E0
1.012504187E0,-3.781597614E-1,-1.288919926E0,-5.418858528E-1,1.448433518E0
1.017246374E0,-2.331711054E-1,-1.113956690E0,-4.664077759E-1,1.229961172E0
1.021988614E0,6.472194195E-2,-8.527002335E-1,-4.251613617E-1,9.550124614E-1
1.026730853E0,4.316072464E-1,-5.440130234E-1,-3.557863235E-1,7.802684748E-1
1.031473093E0,7.292246819E-1,-3.196940422E-1,-2.199287415E-1,8.260396895E-1
1.036215280E0,7.978315353E-1,-1.966786385E-1,-8.671474457E-2,8.262790646E-1
1.040957520E0,6.036918163E-1,-1.107902527E-1,2.722835541E-2,6.143774675E-1
1.045699760E0,3.800246716E-1,-7.432270050E-2,8.621692657E-2,3.967064068E-1
1.050441999E0,1.403797865E-1,-1.373038292E-1,2.370452881E-2,1.977896121E-1
1.055184187E0,-8.906042576E-2,-2.061805725E-1,-1.455631256E-1,2.676393309E-1
1.059926426E0,-3.797525167E-1,-2.042784691E-1,-3.212280273E-1,5.377072739E-1
1.064668666E0,-9.615519047E-1,-7.947015762E-2,-4.029741287E-1,1.045603041E0
1.069410853E0,-1.901968122E0,2.652249336E-1,-3.381299973E-1,1.949912535E0
1.074153093E0,-2.616966724E0,8.619055748E-1,-2.074794769E-1,2.763049726E0
1.078895332E0,-2.529698849E0,1.335078716E0,-7.048130035E-2,2.861254805E0
1.083637520E0,-2.250440121E0,1.508933544E0,-1.776371002E-1,2.715311422E0
1.088379760E0,-2.363636494E0,1.428084850E0,-5.952262878E-1,2.824977548E0
1.093121999E0,-2.659923792E0,1.254030704E0,-1.163046837E0,3.162351266E0
1.097864239E0,-2.983444452E0,1.117185593E0,-1.912107944E0,3.715535122E0
1.102606426E0,-2.800440788E0,8.107085228E-1,-2.351081371E0,3.745303797E0
1.107348666E0,-2.643251181E0,3.042931557E-1,-2.276613712E0,3.501762574E0
1.112090905E0,-2.539804459E0,-3.153920174E-1,-2.048366070E0,3.278091269E0
1.116833093E0,-1.717735052E0,-1.023665428E0,-2.091518879E0,2.893606027E0
1.121575332E0,-8.294816017E-1,-1.710112810E0,-2.167013168E0,2.882441955E0
1.126317572E0,1.154046059E-1,-2.247963428E0,-2.311358452E0,3.226303720E0
1.131059760E0,4.334969521E-1,-2.399044752E0,-2.441499710E0,3.450254507E0
1.135801999E0,1.449201107E-1,-2.093534708E0,-2.402361870E0,3.189863942E0
1.140544239E0,-3.402023315E-1,-1.601384640E0,-1.878838539E0,2.492028220E0
1.145286426E0,-3.389942169E0,-3.251859665E0,-1.145936966E0,4.835232230E0
1.150028666E0,-3.367805004E0,-3.179368019E0,-7.304477692E-1,4.688714695E0
1.154770905E0,-3.053084850E0,-2.758406162E0,-1.818046570E-1,4.118638682E0
1.159513145E0,-2.673647165E0,-2.166417837E0,4.479589462E-1,3.470219392E0
1.164255332E0,-2.430641651E0,-1.439537287E0,1.199908257E0,3.069212645E0
1.168997572E0,-2.064022303E0,-7.892782688E-1,1.448754311E0,2.642354500E0
1.173739812E0,-1.385307074E0,-2.748985291E-1,1.123929977E0,1.804955258E0
1.178481999E0,-6.492881775E-1,2.879619598E-2,5.244998932E-1,8.351673463E-1
1.183224239E0,-1.186516285E-1,5.009269714E-2,2.997970581E-2,1.322356609E-1
1.187966478E0,4.779744148E-2,-8.454990387E-2,-2.884759903E-1,3.043873825E-1
1.192708666E0,5.881476402E-2,-4.255037308E-1,-5.121116638E-1,6.684092740E-1
1.197450905E0,-4.419314861E-1,-6.326246262E-1,-1.728100777E0,1.892577515E0
1.202193145E0,-4.552240372E-1,-6.967227459E-1,-3.087300777E0,3.197511157E0
1.206935332E0,-8.457231522E-2,-6.118466854E-1,-4.169122219E0,4.214627969E0
1.211677572E0,4.181249142E-1,-2.537870407E-1,-4.591931343E0,4.617907509E0
1.216419812E0,1.080721140E0,4.940891266E-2,-4.618836403E0,4.743843288E0
1.221161999E0,1.601866364E0,2.776703835E-1,-4.258583546E0,4.558356119E0
1.225904239E0,1.850823402E0,4.776930809E-1,-3.884563446E0,4.329384611E0
1.230646478E0,1.859193444E0,5.009021759E-1,-3.547004223E0,4.035931393E0
1.235388666E0,1.522291660E0,2.178778648E-1,-2.964168549E0,3.339331946E0
1.240130905E0,2.961961031E-1,-2.754278183E-1,-1.393838882E0,1.451337123E0
1.244873145E0,-1.469925761E0,-1.051969767E0,1.726198196E0,2.499416401E0
1.249615332E0,-3.365500927E0,-2.011380911E0,3.996466637E0,5.598570821E0
1.254357572E0,-4.899070740E0,-2.577935457E0,4.405755997E0,7.075120581E0
1.259099812E0,-5.292187691E0,-2.664067745E0,3.024417877E0,6.652188437E0
1.263841999E0,-5.816672802E0,-2.430096865E0,8.178501129E-1,6.356723375E0
1.268584239E0,-6.128726959E0,-2.395872116E0,-1.446123123E-1,6.581976151E0
1.273326478E0,-5.852653503E0,-2.173516512E0,-4.666509628E-1,6.260630174E0
1.278068666E0,-5.065114498E0,-1.936968088E0,-6.181206703E-1,5.457957806E0
1.282810905E0,-4.571592808E0,-2.142767906E0,-9.122877121E-1,5.130612436E0
1.287553093E0,-4.189841747E0,-2.553871632E0,-1.277543545E0,5.070419281E0
1.292295332E0,-3.458894014E0,-2.872723341E0,-1.496840000E0,4.738883538E0
1.297037572E0,-2.696824551E0,-3.027485847E0,-1.678404808E0,4.388117582E0
1.301779760E0,-2.170740604E0,-2.494099617E0,-1.805514336E0,3.767297398E0
1.306521999E0,-1.887268543E0,-2.550486088E0,-1.264523506E0,3.415520683E0
1.311264239E0,-1.760659814E0,-2.805381775E0,-6.201701164E-1,3.369673702E0
1.316006426E0,-1.702192068E0,-3.064465046E0,-8.923912048E-2,3.506617669E0
1.320748666E0,-1.287689090E0,-2.680262804E0,3.770675659E-1,2.997354140E0
1.325490905E0,-1.499478102E0,-2.648936749E0,5.936727524E-1,3.101249395E0
1.330233093E0,-1.846147776E0,-2.676673651E0,3.734846115E-1,3.272970241E0
1.334975332E0,-1.714478135E0,-2.450158119E0,-2.341299057E-1,2.999587788E0
1.339717520E0,-1.341354847E0,-2.004106045E0,-1.218472481E0,2.701915811E0
1.344459760E0,-1.042308927E0,-1.501002789E0,-2.275836468E0,2.918706717E0
1.349201999E0,-7.866124511E-1,-1.134956360E0,-3.593495846E0,3.849687972E0
1.353944187E0,-3.650352359E-1,-9.631679058E-1,-4.745562553E0,4.856058802E0
1.358686426E0,5.632333159E-1,-7.773821354E-1,-4.541338921E0,4.641693004E0
1.363428666E0,2.107844830E0,-4.082293510E-1,-3.110446453E0,3.779489141E0
1.368170853E0,3.285982370E0,-1.753985882E-1,-1.146947384E0,3.484814644E0
1.372913093E0,4.225345135E0,2.002582550E-1,9.680871964E-1,4.339451313E0
1.377655332E0,5.063850880E0,5.509941578E-1,2.492566109E0,5.670896411E0
1.382397520E0,5.475928307E0,7.723813057E-1,3.438598633E0,6.512013840E0
1.387139760E0,5.342901230E0,8.202164173E-1,3.866297722E0,6.645871395E0
1.391881947E0,4.729162216E0,7.555077076E-1,4.110204697E0,6.311065664E0
1.396624187E0,3.786403179E0,5.009875298E-1,4.114499092E0,5.613995041E0
1.401366426E0,2.649312019E0,4.717612267E-2,3.634792328E0,4.498087930E0
1.406108614E0,1.567210674E0,-4.596204758E-1,2.828463554E0,3.266130181E0
1.410850853E0,2.583280802E-1,-1.042681932E0,1.578044891E0,1.908964297E0
1.415593041E0,-9.733133316E-1,-1.498808384E0,5.061893463E-1,1.857415696E0
1.420335280E0,-1.969851494E0,-1.889899373E0,-3.894691467E-1,2.757484499E0
1.425077520E0,-2.289117336E0,-1.981996059E0,-8.082771301E-1,3.133955724E0
1.429819707E0,-1.789962292E0,-1.700766087E0,-3.194856644E-1,2.489707087E0
1.434561947E0,-2.829320431E-1,-1.109146833E0,9.141302109E-1,1.464886098E0
1.439304135E0,1.120279789E0,-6.702280045E-1,1.930846214E0,2.330750842E0
1.444046374E0,2.221355915E0,-3.748645782E-1,2.449908257E0,3.328212135E0
1.448788614E0,3.111648083E0,-2.869632244E-1,2.665816307E0,4.107466161E0
1.453530801E0,3.599480152E0,-3.734600544E-1,2.578237534E0,4.443313916E0
1.458273041E0,3.794549942E0,-5.911982059E-1,2.258001328E0,4.454962915E0
1.463015228E0,3.690577507E0,-8.613734245E-1,1.787812233E0,4.190298210E0
1.467757468E0,3.430520296E0,-1.220448852E0,1.312563896E0,3.870502407E0
1.472499707E0,3.003018856E0,-1.662046313E0,8.148450851E-1,3.527675256E0
1.477241895E0,2.357418299E0,-2.168290854E0,3.709278107E-1,3.224359425E0
1.481984135E0,1.513815641E0,-2.523350954E0,-1.288671494E-1,2.945427741E0
1.486726322E0,7.620644569E-1,-2.627151251E0,-3.665218353E-1,2.759892061E0
1.491468562E0,2.275052071E-1,-2.533193350E0,-2.829103470E-1,2.559075112E0
1.496210749E0,-1.205134392E-2,-2.338055372E0,4.480457306E-2,2.338515685E0
1.500952989E0,1.028702259E-1,-2.236011267E0,6.444101334E-1,2.329290254E0
1.505695228E0,4.293427467E-1,-2.310951948E0,1.192582130E0,2.635732581E0
1.510437416E0,-3.060401678E0,-2.319531441E0,3.543473244E0,5.225178195E0
1.515179655E0,-8.569494247E0,-4.317769051E0,4.310086250E0,1.051932530E1
1.519921843E0,-5.753715038E0,-5.805817604E0,6.855441093E0,1.066816889E1
1.524664082E0,-5.092414856E0,-5.163162231E0,6.413966179E0,9.681420115E0
1.529406322E0,-1.475181699E0,-4.458187103E0,3.291505814E0,5.734597092E0
1.534148510E0,2.733972073E0,-2.515018463E0,1.809082031E0,4.131912264E0
1.538890749E0,3.077894449E0,-1.156450391E0,2.130324364E0,3.917791934E0
1.543632937E0,1.328048706E0,-1.045324802E0,1.365893364E0,2.173035202E0
1.548375176E0,-4.222562313E-1,-1.453787565E0,-6.491661072E-1,1.647184035E0
1.553117364E0,-1.352731705E0,-1.981810212E0,-1.332601547E0,2.744682434E0
1.557859603E0,-1.028799057E0,-2.249079943E0,6.393527985E-2,2.474040381E0
1.562601843E0,-7.494263649E-1,-2.812335014E0,1.487759590E0,3.268684247E0
1.567344030E0,-4.917759895E-1,-3.445459604E0,2.455198288E0,4.259229290E0
1.572086270E0,-3.941283226E-1,-3.735104084E0,3.747419357E0,5.305609436E0
1.576828457E0,-5.341000557E-1,-3.642926693E0,4.720075607E0,5.986258556E0
1.581570697E0,-5.728878975E-1,-3.329295158E0,4.771610260E0,5.846423802E0
1.586312885E0,-3.292536736E-1,-3.051914215E0,4.372254372E0,5.342208967E0
1.591055124E0,-2.106785774E-1,-2.897969484E0,3.337337494E0,4.424978434E0
1.595797364E0,1.316510201E0,-2.584164619E0,2.749667168E0,3.996470370E0
1.600539551E0,2.559683323E0,-2.479430676E0,2.040364265E0,4.106414680E0
1.605281791E0,3.398271084E0,-2.421049118E0,1.315861702E0,4.375067681E0
1.610023978E0,4.145084858E0,-2.343650341E0,1.040021896E0,4.874019998E0
1.614766218E0,5.063628674E0,-2.006152391E0,1.119564056E0,5.560432217E0
1.619508405E0,5.484341145E0,-1.687203765E0,8.413362503E-1,5.799353500E0
1.624250645E0,5.244338989E0,-1.403127670E0,5.533914566E-1,5.456931445E0
1.628992832E0,5.011405468E0,-1.074582696E0,3.941116333E-1,5.140451022E0
1.633735072E0,4.956807137E0,-8.943907022E-1,2.808971405E-1,5.044677881E0
1.638477260E0,5.151494026E0,-9.734333754E-1,8.820343018E-2,5.243399955E0
1.643219499E0,5.404001713E0,-1.180928230E0,-5.754804611E-1,5.561385058E0
1.647961739E0,5.360437870E0,-1.375063658E0,-1.111886024E0,5.644588980E0
1.652703926E0,4.364852428E0,-1.344829559E0,7.955980301E-1,4.636106070E0
1.657446166E0,3.390935421E0,-1.474623680E0,1.595305443E0,4.027152528E0
1.662188353E0,3.363816261E0,-1.909415960E0,-1.262092590E-2,3.867982476E0
1.666930593E0,3.074088097E0,-2.067571402E0,-2.239227295E-1,3.711470129E0
1.671672780E0,2.671157360E0,-1.657114983E0,5.143079758E-1,3.185219679E0
1.676415020E0,2.508738995E0,-9.613013864E-1,1.658808708E0,3.157454359E0
1.681157207E0,2.775739670E0,-4.623051882E-1,1.891498566E0,3.390608150E0
1.685899447E0,3.249310017E0,-3.847980201E-1,1.840318680E0,3.754045544E0
1.690641635E0,3.559322834E0,-4.205858707E-1,2.057374954E0,4.132609734E0
1.695383874E0,3.583721161E0,-3.982209265E-1,2.167519569E0,4.207110451E0
1.700126062E0,3.311102390E0,-1.865139008E-1,1.978871346E0,3.861880148E0
1.704868301E0,2.863130569E0,-5.372810364E-2,2.048935890E0,3.521156294E0
1.709610541E0,1.362023115E0,-3.652603626E-1,3.355678558E0,3.639931412E0
1.714352728E0,6.045763493E-1,-5.778566599E-1,2.682687759E0,2.810025711E0
1.719094968E0,8.494153023E-1,-6.357289553E-1,7.463626862E-1,1.297195020E0
1.723837155E0,9.411597252E-1,-7.640123963E-1,-3.575983047E-1,1.263872271E0
1.728579395E0,6.384592056E-1,-7.258356214E-1,-1.913611889E0,2.143916502E0
1.733321582E0,1.579523087E-3,-5.234085321E-1,-3.233029366E0,3.275124099E0
1.738063770E0,-4.472844601E-1,-2.959185839E-1,-4.067531586E0,4.102736209E0
1.742806010E0,-6.926939487E-1,-8.459562063E-2,-4.444329739E0,4.498782963E0
1.747548249E0,-4.935498238E-1,-3.550112247E-2,-4.740971088E0,4.766724097E0
1.752290437E0,5.719487667E-1,1.847004890E-1,-5.366125584E0,5.399679939E0
1.757032676E0,1.280935526E0,4.140329957E-1,-5.217707634E0,5.388570506E0
1.761774864E0,1.223168135E0,6.202270985E-1,-3.843378067E0,4.080732398E0
1.766517103E0,1.391794443E0,6.516972780E-1,-2.459277153E0,2.899973315E0
1.771259291E0,2.572337151E0,7.121780515E-1,-1.067993164E0,2.874843542E0
1.776001530E0,4.125770569E0,2.759142518E-1,-2.726659775E-1,4.143966481E0
1.780743718E0,-5.398093700E0,-2.164064407E0,4.895177841E0,7.601668005E0
1.785485957E0,-1.484896278E1,-3.936846018E0,1.502403736E1,2.148748824E1
1.790228145E0,-1.171161270E1,-2.246065855E0,1.220496750E1,1.706364309E1
1.794970385E0,-2.018321037E0,-7.730722427E-4,1.597817421E0,2.574226276E0
1.799712572E0,3.098691225E0,2.087601662E0,-5.223223686E0,6.421996082E0
1.804454812E0,3.621642113E0,3.358050823E0,-9.317107201E0,1.054520192E1
1.809196999E0,1.927377462E0,3.279442072E0,-1.081567097E1,1.146508886E1
1.813939239E0,-1.254174709E-1,1.368088722E0,-1.028715706E1,1.037848720E1
1.818681426E0,-1.764301777E0,-1.441945791E0,-8.235193253E0,8.544610953E0
1.823423666E0,-3.333793402E0,-3.243254185E0,-4.719943523E0,6.626518167E0
1.828165853E0,-4.947305202E0,-3.807264805E0,-9.390640259E-2,6.243389502E0
1.832908041E0,-5.899290085E0,-3.703368425E0,3.997460365E0,8.030955769E0
1.837650280E0,-3.531699181E0,-3.059639215E0,1.167309761E1,1.257360326E1
1.842392468E0,3.380343914E-1,-1.227964282E0,6.492495537E0,6.616242274E0
1.847134707E0,2.098869801E0,5.776704550E-1,-6.480207443E-1,2.271318665E0
1.851876895E0,3.992533684E0,7.778444886E-1,2.831880569E0,4.956300518E0
1.856619135E0,3.844440937E0,-8.692945838E-1,4.861315727E0,6.258417515E0
1.861361322E0,3.927745819E0,-3.750478268E0,1.146453285E1,1.268577108E1
1.866103562E0,8.689479828E-1,-5.401571751E0,6.676046371E0,8.631433434E0
1.870845749E0,-6.513605118E-1,-5.662107944E0,7.630731583E0,9.524274323E0
1.875587989E0,7.085318565E-1,-4.758849144E0,7.673167229E0,9.056829351E0
1.880330176E0,-3.232922316E0,-3.801432610E0,-5.427742004E-1,5.019689275E0
1.885072416E0,-5.597671986E0,-2.674658298E0,-3.076117992E0,6.924610500E0
1.889814603E0,-3.892037630E0,-1.558043003E0,-2.160529137E0,4.716284667E0
1.894556843E0,-1.972770095E0,-1.394769192E0,-1.908734322E0,3.079037131E0
1.899299030E0,-4.005527496E-1,-1.720163584E0,-2.859942913E0,3.361350729E0
1.904041218E0,9.266245365E-1,-1.575114250E0,-3.737051487E0,4.159948527E0
1.908783457E0,1.208334208E0,-1.165382624E0,-4.903127193E0,5.182551929E0
1.913525645E0,9.879634380E-1,-7.100879550E-1,-5.875746727E0,6.000391342E0
1.918267885E0,8.783891201E-1,-4.329800010E-1,-6.591222763E0,6.663576865E0
1.923010072E0,-7.604472637E-1,6.620216370E-2,-5.898153305E0,5.947341858E0
1.927752312E0,-1.950946093E0,1.091807485E0,-5.540184975E0,5.974268473E0
1.932494499E0,-2.335581779E0,1.439031363E0,-3.502639771E0,4.449071687E0
1.937236739E0,-2.323249817E0,1.555790186E0,-1.896245003E0,3.378419442E0
1.941978926E0,-1.353252888E0,1.442346096E0,-2.805479050E0,3.432545460E0
1.946721166E0,-3.871774673E-2,1.200177670E0,-3.377748489E0,3.584844538E0
1.951463353E0,6.568350792E-1,7.586294413E-1,-3.714200974E0,3.847367908E0
1.956205541E0,3.839881420E-1,4.597896338E-1,-3.902930737E0,3.948635427E0
1.960947780E0,-6.363916397E-1,1.938757896E-1,-3.855512142E0,3.912487191E0
1.965689968E0,-1.734127641E0,-2.441766262E-1,-4.451614857E0,4.783690597E0
1.970432207E0,-2.172109604E0,-5.705126524E-1,-5.607132912E0,6.040155984E0
1.975174395E0,-1.493596077E0,-4.304351807E-1,-6.360215664E0,6.547400017E0
1.979916635E0,4.101932049E-1,3.626270294E-1,-7.414442062E0,7.434628970E0
1.984658822E0,2.733411551E0,1.501507759E0,-8.188173294E0,8.761977297E0
1.989401010E0,4.063995361E0,2.697976351E0,-7.888852596E0,9.275188945E0
1.994143249E0,4.007699013E0,4.130567074E0,-6.230308056E0,8.481743583E0
1.998885437E0,3.939980030E0,5.542591095E0,-4.581844330E0,8.199820495E0
2.003627676E0,3.389501095E0,6.278667927E0,-2.900785446E0,7.702268809E0
2.008369864E0,1.640563250E0,6.158961773E0,-1.485419273E0,6.544518952E0
2.013112103E0,-2.253015041E-1,5.962176323E0,-2.427892685E-1,5.971369516E0
2.017854291E0,-1.803872943E0,5.868414879E0,8.333749771E-1,6.195705338E0
2.022596478E0,-2.866149187E0,5.781331062E0,1.475954056E0,6.619444115E0
2.027338718E0,-3.269925594E0,5.682001114E0,1.504541397E0,6.726157511E0
2.032080905E0,-3.455664158E0,5.540364265E0,1.203290939E0,6.639665658E0
2.036823145E0,-3.738515139E0,5.389096260E0,6.382637024E-1,6.589858458E0
2.041565332E0,-3.560826540E0,5.634987831E0,1.152229309E-2,6.665786245E0
2.046307520E0,-3.300360680E0,5.405002594E0,-1.623818874E0,6.537830022E0
2.051049760E0,-3.379818439E0,5.202043533E0,-2.826069832E0,6.816971490E0
2.055791947E0,-3.937492371E0,4.950422287E0,-3.611455917E0,7.283758702E0
2.060534187E0,-4.068087578E0,4.396112919E0,-4.225380421E0,7.330005801E0
2.065276374E0,-4.415361404E0,3.806341648E0,-4.760582447E0,7.526406733E0
2.070018562E0,-4.865350246E0,3.298659325E0,-4.850413322E0,7.620977349E0
2.074760801E0,-5.001170158E0,3.063333988E0,-4.504722118E0,7.395149724E0
2.079502989E0,-5.110660553E0,3.034077406E0,-4.034417152E0,7.183383517E0
2.084245228E0,-5.449226379E0,3.001407862E0,-3.355757236E0,7.068495166E0
2.088987416E0,-5.786088943E0,2.942931890E0,-2.600452900E0,6.992998546E0
2.093729603E0,-5.809205532E0,3.008179903E0,-1.725728512E0,6.765659919E0
2.098471843E0,-5.660523415E0,3.143255472E0,-7.583723068E-1,6.518949980E0
2.103214030E0,-5.584129333E0,3.222949743E0,3.153171539E-1,6.455178570E0
2.107956270E0,-5.604183197E0,3.368714333E0,1.267803192E0,6.660512780E0
2.112698457E0,-5.482139587E0,3.534741402E0,2.161026955E0,6.871556500E0
2.117440645E0,-5.123208523E0,3.720985651E0,3.020751953E0,7.015550024E0
2.122182885E0,-4.815211773E0,3.915796041E0,3.593128204E0,7.171491710E0
2.126925072E0,-4.653905392E0,4.086346626E0,4.085500240E0,7.419459304E0
2.131667312E0,-4.677876472E0,4.197569847E0,4.501738548E0,7.730961833E0
2.136409499E0,-4.807324886E0,4.207621574E0,4.707556248E0,7.935712804E0
2.141151687E0,-5.054080963E0,4.143920898E0,4.896578312E0,8.166535003E0
2.145893926E0,-5.355759621E0,3.990811110E0,5.190192699E0,8.458654425E0
2.150636114E0,-5.066686630E0,3.861094713E0,5.322384834E0,8.301032834E0
2.155378301E0,-4.577002048E0,3.807413340E0,5.350315094E0,8.004449743E0
2.160120541E0,-4.699856758E0,3.832286596E0,5.479717255E0,8.173272007E0
2.164862728E0,-4.584215164E0,3.897279978E0,5.600865364E0,8.220310987E0
2.169604968E0,-4.336302757E0,3.813915730E0,5.615979671E0,8.055352411E0
2.174347155E0,-4.110060692E0,3.542354107E0,5.501598358E0,7.727124692E0
2.179089343E0,-3.677257538E0,3.250663757E0,5.423266888E0,7.314428317E0
2.183831582E0,-3.285241842E0,2.939388275E0,5.402598858E0,6.972868263E0
2.188573770E0,-3.001521111E0,2.571021557E0,5.468091488E0,6.746799637E0
2.193315957E0,-3.038638830E0,2.019824028E0,5.595156670E0,6.679730025E0
2.198058197E0,-3.312736034E0,1.329925060E0,5.850161552E0,6.853270087E0
2.202800385E0,-3.594920635E0,6.502027512E-1,6.268756390E0,7.255585756E0
2.207542572E0,-3.752411842E0,9.757804871E-2,6.827254772E0,7.791118266E0
2.212284812E0,-3.700365782E0,-2.690300941E-1,7.521411419E0,8.386698626E0
2.217026999E0,-3.384776592E0,-5.246005058E-1,8.181938171E0,8.869950987E0
2.221769187E0,-2.954063654E0,-6.506299973E-1,8.555696487E0,9.074676515E0
2.226511426E0,-2.307111502E0,-7.453455925E-1,8.797742844E0,9.125709982E0
2.231253614E0,-2.035070419E0,-8.851165771E-1,8.586965561E0,8.869099194E0
2.235995853E0,-1.250906706E0,-8.483738899E-1,8.481555939E0,8.615178291E0
2.240738041E0,-1.165282965E0,-1.380631924E0,8.190725327E0,8.387610522E0
2.245480228E0,-8.646256924E-1,-1.501133919E0,7.366024971E0,7.566987809E0
2.250222468E0,1.821317673E0,-4.945211411E-1,8.162221909E0,8.377566216E0
2.254964655E0,4.251239777E0,-3.679027557E-1,1.112494469E1,1.191523337E1
2.259706843E0,4.101558208E0,-1.463940620E0,1.129738426E1,1.210771626E1
2.264449082E0,3.332539082E0,-1.919644356E0,9.765812874E0,1.049580641E1
2.269191270E0,2.286500454E0,-1.916780472E0,8.768979073E0,9.262673787E0
2.273933457E0,1.474586010E0,-1.805251598E0,8.575952530E0,8.887086082E0
2.278675697E0,1.302085400E0,-1.889374256E0,8.256127357E0,8.569060649E0
2.283417885E0,1.548426628E0,-2.262685299E0,7.286259174E0,7.785046085E0
2.288160072E0,1.578275681E0,-2.932298183E0,6.094355583E0,6.944817977E0
2.292902312E0,1.316609383E0,-3.831320524E0,4.890143394E0,6.350273982E0
2.297644499E0,9.273600578E-1,-4.785944939E0,3.983767509E0,6.295686555E0
2.302386739E0,4.091057777E-1,-5.654528141E0,3.365489483E0,6.592994425E0
2.307128926E0,8.561277390E-2,-6.243836403E0,2.975966930E0,6.917311743E0
2.311871114E0,-6.322569847E-1,-6.707593918E0,2.739147663E0,7.272860165E0
2.316613301E0,-1.300316811E0,-6.922339916E0,2.641588688E0,7.522473298E0
2.321355541E0,-1.632419348E0,-6.966047764E0,2.643737793E0,7.627579163E0
2.326097728E0,-1.495217562E0,-6.869327545E0,2.720591545E0,7.538232872E0
2.330839968E0,-9.891948700E-1,-6.600844383E0,2.863761902E0,7.262973585E0
2.335582155E0,-2.615809441E-1,-6.301247120E0,2.978179932E0,6.974503248E0
2.340324343E0,5.294389725E-1,-5.881407738E0,3.075873852E0,6.658247709E0
2.345066582E0,1.513246059E0,-5.256873608E0,3.010489941E0,6.244011807E0
2.349808770E0,2.505776882E0,-4.527080536E0,2.745760441E0,5.857693775E0
2.354550957E0,3.162442207E0,-3.805196047E0,2.369903564E0,5.486073329E0
2.359293197E0,3.501433372E0,-3.118169308E0,2.062500000E0,5.122198917E0
2.364035385E0,3.726209164E0,-2.447406292E0,1.702339172E0,4.772042639E0
2.368777572E0,3.914960861E0,-1.838771343E0,1.281049728E0,4.510996232E0
2.373519812E0,3.978032112E0,-1.316223145E0,7.353010178E-1,4.254156842E0
2.378261999E0,3.940840721E0,-1.015464306E0,1.637310982E-1,4.072861552E0
2.383004187E0,3.914904594E0,-9.067153931E-1,-4.766154289E-1,4.046699032E0
2.387746426E0,3.748475075E0,-9.431753159E-1,-1.216859341E0,4.052331640E0
2.392488614E0,3.447370529E0,-1.087432861E0,-1.982922554E0,4.122966850E0
2.397230801E0,2.981417656E0,-1.249741077E0,-2.574047565E0,4.132363110E0
2.401973041E0,2.499810457E0,-1.321548939E0,-2.988166094E0,4.113961658E0
2.406715228E0,2.008278847E0,-1.400424957E0,-3.218173981E0,4.043639172E0
2.411457416E0,1.392920017E0,-1.426045418E0,-3.314240217E0,3.867559945E0
2.416199655E0,7.078664303E-1,-1.491416931E0,-3.273916483E0,3.666596308E0
2.420941843E0,7.945275307E-2,-1.546421051E0,-2.960922003E0,3.341375452E0
2.425684030E0,-2.842512131E-1,-1.484039307E0,-2.521290302E0,2.939400654E0
2.430426270E0,-3.179039955E-1,-1.379463673E0,-2.017360687E0,2.464493278E0
2.435168457E0,-1.131503582E-1,-1.128822327E0,-1.425570965E0,1.821893363E0
2.439910645E0,1.363606453E-1,-7.744479179E-1,-7.703304291E-1,1.100805511E0
2.444652885E0,4.997973442E-1,-3.108386993E-1,-1.474590302E-1,6.067637496E-1
2.449395072E0,8.926672935E-1,2.031893730E-1,3.093214035E-1,9.663439082E-1
2.454137260E0,1.208528519E0,6.711163521E-1,5.597276688E-1,1.491386403E0
2.458879499E0,1.374495983E0,1.025847435E0,7.303800583E-1,1.864150530E0
2.463621687E0,1.453825951E0,1.208094120E0,6.414837837E-1,1.996146974E0
2.468363874E0,1.487410069E0,1.254737854E0,2.331161499E-1,1.959872173E0
2.473106114E0,1.592240810E0,1.205007553E0,-3.775596619E-1,2.032197161E0
2.477848301E0,1.724592209E0,1.250939846E0,-9.490695000E-1,2.332338248E0
2.482590489E0,1.786251068E0,1.366558075E0,-1.309760094E0,2.602622784E0
2.487332728E0,1.722099304E0,1.463768005E0,-1.579714298E0,2.757487997E0
2.492074916E0,1.595933914E0,1.545287609E0,-1.863891602E0,2.899829436E0
2.496817103E0,1.779017448E0,1.692748547E0,-2.453076839E0,3.471006584E0
2.501559343E0,1.864167213E0,1.724799633E0,-2.699226379E0,3.706194304E0
2.506301530E0,1.996471882E0,1.697206974E0,-3.207527161E0,4.141816265E0
2.511043718E0,1.742402554E0,1.524906158E0,-3.683744192E0,4.351008702E0
2.515785957E0,1.663589001E0,1.297134399E0,-3.972726822E0,4.498071188E0
2.520528145E0,1.577321053E0,1.021317482E0,-3.869007349E0,4.301191575E0
2.525270332E0,1.296009064E0,6.858415604E-1,-3.721669674E0,4.000105411E0
2.530012572E0,1.065495968E0,3.532853127E-1,-3.607160807E0,3.777790526E0
2.534754760E0,1.050927162E0,9.549474716E-2,-3.296396255E0,3.461184107E0
2.539496947E0,1.013616562E0,-1.499633789E-1,-2.754168749E0,2.938597122E0
2.544239187E0,9.400196075E-1,-3.402733803E-1,-2.119811058E0,2.343719641E0
2.548981374E0,8.307890892E-1,-4.614543915E-1,-1.513094425E0,1.786786335E0
2.553723562E0,6.650214195E-1,-6.165966988E-1,-1.051190376E0,1.388324956E0
2.558465801E0,5.225605965E-1,-7.533349991E-1,-7.436938286E-1,1.180535348E0
2.563207989E0,4.499688148E-1,-7.835798264E-1,-5.741081238E-1,1.070546317E0
2.567950228E0,4.004912376E-1,-6.626820564E-1,-4.779253006E-1,9.099194098E-1
2.572692416E0,3.893575668E-1,-4.203686714E-1,-1.992511749E-1,6.066384141E-1
2.577434603E0,2.262225151E-1,-1.221714020E-1,2.425584793E-1,3.534644164E-1
2.582176843E0,-1.050238609E-1,2.238354683E-1,7.329888344E-1,7.735663899E-1
2.586919030E0,-5.212826729E-1,5.953259468E-1,1.215833187E0,1.450654661E0
2.591661218E0,-9.133090973E-1,7.485103607E-1,1.627145767E0,2.010473729E0
2.596403457E0,-9.844403267E-1,4.455919266E-1,1.899172783E0,2.185070292E0
2.601145645E0,-1.454515457E-1,3.522500992E-1,1.993591785E0,2.029690738E0
2.605887832E0,5.681467056E-1,5.525898933E-1,2.308257580E0,2.440532590E0
2.610630072E0,7.282533646E-1,8.211460114E-1,2.489811420E0,2.720991482E0
2.615372260E0,4.184145927E-1,1.048363686E0,2.629668713E0,2.861694380E0
2.620114447E0,-1.034946442E-1,1.202302456E0,2.526626110E0,2.800014614E0
2.624856687E0,-5.945427418E-1,1.399532318E0,2.476696491E0,2.906234211E0
2.629598874E0,-9.810421467E-1,1.444873810E0,2.622619152E0,3.150910224E0
2.634341062E0,-1.011328697E0,1.525114059E0,2.855778217E0,3.391788297E0
2.639083301E0,-8.642599583E-1,1.828566551E0,3.149456501E0,3.742950328E0
2.643825489E0,-8.238461018E-1,2.476068020E0,3.465497971E0,4.338123030E0
2.648567728E0,-9.225053787E-1,3.187202930E0,3.684042931E0,4.957968436E0
2.653309916E0,-9.151148796E-1,3.725366592E0,3.670639515E0,5.309367753E0
2.658052103E0,-7.772922516E-1,4.155856133E0,3.386591911E0,5.417040540E0
2.662794343E0,-5.829861164E-1,4.436029911E0,2.851123333E0,5.305387681E0
2.667536530E0,-1.958489418E-1,4.604505062E0,2.095538139E0,5.062717034E0
2.672278718E0,3.160095215E-1,4.977394581E0,1.479595184E0,5.202261118E0
2.677020957E0,6.744470596E-1,5.306773663E0,9.698200226E-1,5.436660410E0
2.681763145E0,1.077757359E0,5.457572460E0,1.313161850E-2,5.562987554E0
2.686505385E0,1.019816875E0,5.376304626E0,-8.615055084E-1,5.539573055E0
2.691247572E0,1.007664680E0,5.200860023E0,-1.746893406E0,5.578169024E0
2.695989760E0,5.930547714E-1,4.538262844E0,-2.713619947E0,5.320834222E0
2.700731999E0,4.327600002E-1,3.961283207E0,-3.326783657E0,5.191005236E0
2.705474187E0,5.885982513E-1,3.654232502E0,-3.848237514E0,5.339362794E0
2.710216374E0,4.407706261E-1,3.327554703E0,-4.113287926E0,5.309052326E0
2.714958614E0,1.019446850E-1,2.985625267E0,-3.823117733E0,4.851863575E0
2.719700801E0,-1.860935688E-1,2.589603901E0,-3.324630022E0,4.218274999E0
2.724442989E0,-5.933532715E-1,2.210523605E0,-2.767767191E0,3.591520282E0
2.729185228E0,-1.094228506E0,1.885701180E0,-2.165446997E0,3.072843253E0
2.733927416E0,-1.562104702E0,1.668739796E0,-1.363283157E0,2.661466621E0
2.738669655E0,-1.843337536E0,1.452968597E0,-5.136046410E-1,2.402665342E0
2.743411843E0,-1.889074326E0,1.213145256E0,2.670207024E-1,2.260889930E0
2.748154030E0,-1.581435919E0,1.048204422E0,9.772162437E-1,2.134156429E0
2.752896270E0,-1.153620005E0,9.735202789E-1,1.562496662E0,2.172550728E0
2.757638457E0,-7.805562019E-1,8.589797020E-1,2.065842152E0,2.369560699E0
2.762380645E0,-4.917180538E-1,7.349610329E-1,2.504130363E0,2.655677548E0
2.767122885E0,-4.136061668E-1,6.126461029E-1,2.930966854E0,3.022742465E0
2.771865072E0,-4.460878372E-1,4.175314903E-1,3.318575859E0,3.374355144E0
2.776607312E0,-3.529174328E-1,1.639585495E-1,3.576763153E0,3.597869894E0
2.781349499E0,-1.104190350E-1,-8.794593811E-2,3.743834019E0,3.746494363E0
2.786091687E0,9.013295174E-2,-3.446087837E-1,3.840708256E0,3.857190567E0
2.790833926E0,2.400755882E-2,-5.665740967E-1,3.761276722E0,3.803785634E0
2.795576114E0,-1.032233238E-1,-6.856584549E-1,3.652939796E0,3.718165102E0
2.800318353E0,-1.939685345E-1,-7.319493294E-1,3.603288174E0,3.681991211E0
2.805060541E0,-1.362226009E-1,-6.711049080E-1,3.455974579E0,3.523166003E0
2.809802728E0,1.271286011E-1,-5.691995621E-1,3.195745945E0,3.248529201E0
2.814544968E0,5.268073082E-1,-4.089846611E-1,2.922377110E0,2.997512696E0
2.819287155E0,9.367356300E-1,-1.565532684E-1,2.403115273E0,2.583978634E0
2.824029395E0,1.020521879E0,7.869958878E-2,1.871591091E0,2.133192852E0
2.828771582E0,8.378329277E-1,2.023539543E-1,1.216928005E0,1.491249445E0
2.833513770E0,7.946019173E-1,4.092297554E-1,2.019405365E-1,9.163193657E-1
2.838256010E0,4.773445129E-1,3.251166344E-1,-7.573285103E-1,9.524206437E-1
2.842998197E0,4.669022560E-2,6.380033493E-2,-1.644462585E0,1.646361945E0
2.847740437E0,-1.884274483E-1,-2.349705696E-1,-2.746701241E0,2.763165536E0
2.852482624E0,-4.258137941E-1,-6.209578514E-1,-3.640654802E0,3.717697329E0
2.857224864E0,-5.992574692E-1,-8.982658386E-1,-4.206773281E0,4.343147761E0
2.861967051E0,-7.188640833E-1,-1.158858776E0,-4.439665794E0,4.644389260E0
2.866709239E0,-8.046656847E-1,-1.394746304E0,-4.299687862E0,4.591309163E0
2.871451478E0,-8.191130161E-1,-1.617662907E0,-3.870973110E0,4.274600827E0
2.876193666E0,-7.266348600E-1,-1.796196461E0,-3.233063936E0,3.769220392E0
2.880935905E0,-8.207857609E-1,-2.220776558E0,-3.292874813E0,4.055682719E0
2.885678093E0,-8.184453249E-1,-2.906011105E0,-3.699243307E0,4.774846001E0
2.890420332E0,-2.014117241E-1,-3.135602474E0,-3.134155035E0,4.437960944E0
2.895162520E0,2.031191587E-1,-3.181700230E0,-1.995613575E0,3.761242785E0
2.899904707E0,2.179440260E-1,-3.110280991E0,-8.240690231E-1,3.224970883E0
2.904646947E0,1.330425739E-1,-2.960539818E0,2.742242813E-2,2.963654556E0
2.909389135E0,1.279045343E-1,-2.938246250E0,5.307631493E-1,2.988538124E0
2.914131374E0,1.717840433E-1,-3.064377308E0,8.222813606E-1,3.177430515E0
2.918873562E0,1.625168324E-1,-3.235248804E0,1.040063858E0,3.402202136E0
2.923615749E0,6.708014011E-2,-3.368697405E0,1.274103165E0,3.602216099E0
2.928357989E0,-8.304846287E-2,-3.394773960E0,1.542712212E0,3.729791986E0
2.933100228E0,-5.245828629E-2,-3.085745335E0,1.749018192E0,3.547342777E0
2.937842416E0,7.103991508E-2,-2.336044312E0,1.538079262E0,2.797827284E0
2.942584603E0,-1.925659180E-2,-1.620472431E0,5.098900795E-1,1.698908358E0
2.947326843E0,-1.746402979E-1,-1.222333431E0,-1.905674934E-1,1.249365527E0
2.952069030E0,3.248286247E-2,-1.019052505E0,-2.707061768E-1,1.054895720E0
2.956811270E0,1.521447182E0,-3.487086296E-1,2.435612679E-1,1.579785215E0
2.961553457E0,2.206236124E0,4.462366104E-1,2.060751915E-1,2.260325625E0
2.966295697E0,-7.298374176E-2,4.248619080E-3,-1.588874340E0,1.590555358E0
2.971037885E0,2.108851671E0,1.276420593E0,1.047860622E0,2.678528847E0
2.975780124E0,1.876109838E0,1.601285934E0,2.390633106E0,3.434971822E0
2.980522312E0,-1.479155898E0,7.660593987E-1,-1.675776005E0,2.362831858E0
2.985264499E0,-3.730397224E-1,1.059577465E0,-1.544357300E0,1.909686495E0
2.990006739E0,3.151445866E0,2.337380886E0,3.013518333E0,4.947348097E0
2.994748926E0,2.543932915E0,3.021044731E0,6.311063290E0,7.444986621E0
2.999491166E0,-2.845573664E0,8.549900055E-1,-1.258072853E0,3.226615051E0
3.004233353E0,-3.188331604E0,3.619279861E-1,-6.702824593E0,7.431305929E0
3.008975593E0,-1.647029281E0,4.106378555E-1,-9.279527664E0,9.433502137E0
3.013717780E0,-1.733504772E0,-9.009599686E-2,-8.912568092E0,9.080034476E0
3.018460020E0,-2.540041208E0,-5.918884277E-2,-6.582378864E0,7.055708623E0
3.023202207E0,-2.458210707E0,3.413472176E-1,-4.241939068E0,4.914607294E0
3.027944447E0,-1.912044287E0,6.485910416E-1,-2.335175753E0,3.087009797E0
3.032686635E0,-1.463294506E0,7.114701271E-1,-4.837131500E-1,1.697468399E0
3.037428874E0,-1.309840798E0,5.996298790E-1,1.242564201E0,1.902420748E0
3.042171062E0,-1.403966427E0,2.805838585E-1,2.507934093E0,2.887833521E0
3.046913301E0,-1.304790020E0,-4.567909241E-2,3.270979404E0,3.521912810E0
3.051655489E0,-9.193981886E-1,-2.742452621E-1,3.398837090E0,3.531656418E0
3.056397728E0,-6.773341894E-1,-6.675662994E-1,2.975853920E0,3.124121144E0
3.061139916E0,-4.843571186E-1,-1.505752087E0,1.744308949E0,2.354677233E0
3.065882155E0,-6.003732681E-1,-2.245639324E0,2.017178535E-1,2.333245407E0
3.070624343E0,-1.192090154E0,-2.624675274E0,-6.825046539E-1,2.962399674E0
3.075366582E0,-1.394311428E0,-2.632684231E0,-8.983964920E-1,3.111630903E0
3.080108770E0,-9.379422665E-1,-2.577737331E0,-1.212677002E0,2.999175046E0
3.084851010E0,-1.123983860E-1,-2.368046761E0,-1.686406612E0,2.909337746E0
3.089593197E0,6.764602661E-2,-2.045926571E0,-1.871694088E0,2.773739403E0
3.094335437E0,-2.993583679E-3,-1.718657970E0,-1.748711109E0,2.451894109E0
3.099077624E0,1.363840103E-1,-1.372075081E0,-1.330260277E0,1.915928764E0
3.103819864E0,3.374328613E-1,-1.135865688E0,-8.098416328E-1,1.435233524E0
3.108562051E0,3.944051266E-1,-9.722232819E-1,-1.486253738E-1,1.059652309E0
3.113304291E0,2.041928768E-1,-8.431258202E-1,2.713375092E-1,9.089444006E-1
3.118046478E0,-9.240460396E-2,-6.909933090E-1,3.835840225E-1,7.957053891E-1
3.122788718E0,-5.122730732E-1,-6.157374382E-1,4.630260468E-1,9.251753425E-1
3.127530905E0,-8.691830635E-1,-6.573843956E-1,4.926090240E-1,1.195950288E0
3.132273145E0,-1.077070713E0,-6.743311882E-1,6.344919205E-1,1.420346391E0
3.137015332E0,-1.099313378E0,-4.969353676E-1,9.024710655E-1,1.506614977E0
3.141757572E0,-9.752644300E-1,-7.107877731E-2,1.172009468E0,1.526367942E0
3.146499812E0,-7.801756859E-1,4.107594490E-1,1.498404026E0,1.738566090E0
3.151241999E0,-4.629085064E-1,8.447599411E-1,1.733937263E0,1.983542809E0
3.155984239E0,-9.438276291E-2,1.244563580E0,1.783505440E0,2.176864319E0
3.160726426E0,1.159799099E-1,1.647943974E0,1.807587624E0,2.448784126E0
3.165468666E0,2.792143822E-2,2.066396713E0,1.746634483E0,2.705828339E0
3.170210853E0,-1.392817497E-2,2.313149929E0,1.718197346E0,2.881502856E0
3.174953093E0,1.237201691E-1,2.385678291E0,1.689414978E0,2.925899957E0
3.179695280E0,2.206659317E-1,2.284055710E0,1.787153721E0,2.908525805E0
3.184437520E0,1.909840107E-1,1.984706879E0,1.872423649E0,2.735234287E0
3.189179707E0,2.404007912E-1,1.552536488E0,1.894969463E0,2.461518099E0
3.193921947E0,2.421720028E-1,9.685759544E-1,2.103498459E0,2.328409849E0
3.198664187E0,1.866905689E-1,3.669095039E-1,2.610158920E0,2.642424179E0
3.203406374E0,4.758274555E-1,-3.913292885E-1,3.402755737E0,3.458077065E0
3.208148614E0,3.377089500E-1,-8.478012085E-1,5.744860649E0,5.816892478E0
3.212890801E0,-3.947956562E-1,-5.597801208E-1,8.181507111E0,8.210132520E0
3.217633041E0,-1.244128704E0,1.686191559E-2,8.272146225E0,8.365198367E0
3.222375228E0,-1.082979560E0,1.319022179E-1,6.294882298E0,6.388723351E0
3.227117468E0,-9.647080898E-1,-2.740039825E-1,5.465651035E0,5.556894917E0
3.231859707E0,-1.387723446E0,-5.898022652E-1,4.211626053E0,4.473414477E0
3.236601895E0,-1.228078485E0,-4.874081612E-1,1.353744984E0,1.891657728E0
3.241344135E0,-8.683269024E-1,-1.921405792E-1,-1.016019344E0,1.350261056E0
3.246086322E0,-1.170909286E0,1.104083061E-1,-1.476521969E0,1.887679971E0
3.250828562E0,-1.306312680E0,4.272775650E-1,-1.503661156E0,2.037158758E0
3.255570749E0,-1.094631791E0,5.327248573E-1,-1.686644554E0,2.080092398E0
3.260312989E0,-8.649518490E-1,3.666224480E-1,-1.966554165E0,2.179424007E0
3.265055228E0,-1.145247579E0,-3.286075592E-2,-2.604683876E0,2.845531574E0
3.269797416E0,-1.724487782E0,-5.664019585E-1,-3.110061884E0,3.600993503E0
3.274539655E0,-2.141023159E0,-1.048323631E0,-2.913737297E0,3.764681612E0
3.279281843E0,-1.862348080E0,-1.343781948E0,-2.515718699E0,3.406307512E0
3.284024082E0,-1.168356657E0,-1.521813393E0,-1.938538551E0,2.727435608E0
3.288766322E0,-4.594552517E-1,-1.589299679E0,-1.001900673E0,1.934108982E0
3.293508510E0,6.075401306E-1,-1.311790466E0,-3.579187393E-2,1.446091386E0
3.298250749E0,1.555566311E0,-6.849684715E-1,1.051124573E0,1.998457210E0
3.302992937E0,1.904808760E0,-1.221456528E-1,1.634894848E0,2.513184660E0
3.307735176E0,1.728990555E0,1.518216133E-1,1.577150345E0,2.345178320E0
3.312477416E0,1.591746092E0,1.691966057E-1,7.135829926E-1,1.752564920E0
3.317219603E0,1.681117296E0,7.028627396E-2,-8.828024864E-1,1.900114669E0
3.321961843E0,1.892215252E0,-1.189427376E-1,-3.079465866E0,3.616315246E0
3.326704082E0,1.977201223E0,-3.220515251E-1,-5.481547832E0,5.836129582E0
3.331446270E0,1.994148970E0,-5.200662613E-1,-7.394461632E0,7.676272654E0
3.336188510E0,2.290595531E0,-6.155829430E-1,-8.185210228E0,8.521938554E0
3.340930697E0,2.257192850E0,-4.833312035E-1,-8.430625916E0,8.740937132E0
3.345672937E0,2.202090502E0,-2.621598244E-1,-8.071494102E0,8.370600181E0
3.350415176E0,2.098157883E0,-2.059421539E-1,-7.480771065E0,7.772169221E0
3.355157364E0,1.921144247E0,-6.544189453E-1,-5.822429180E0,6.166014996E0
3.359899603E0,1.918124437E0,-1.060751438E0,-3.318027973E0,3.976644893E0
3.364641843E0,1.832744122E0,-1.074958324E0,-1.958527088E0,2.889691120E0
3.369384030E0,1.676216602E0,-7.749848366E-1,-1.355936050E0,2.291040412E0
3.374126270E0,1.376341343E0,-5.915408134E-1,-1.174158573E0,1.903387607E0
3.378868510E0,6.643848419E-1,-7.006673813E-1,-1.092276573E0,1.457878633E0
3.383610697E0,-2.282912731E-1,-8.720202446E-1,-7.058334351E-1,1.144874251E0
3.388352937E0,-5.724148750E-1,-9.427156448E-1,-1.324148178E-1,1.110812883E0
3.393095176E0,-5.200695992E-1,-8.459115028E-1,5.025291443E-1,1.112912485E0
3.397837364E0,-5.258872509E-1,-6.175990105E-1,1.324090958E0,1.552804818E0
3.402579603E0,-8.319005966E-1,-4.827303886E-1,2.211476326E0,2.411579311E0
3.407321843E0,-1.317352057E0,-4.340920448E-1,3.015928268E0,3.319589683E0
3.412064030E0,-1.265923977E0,-2.879734039E-1,3.861586094E0,4.073983230E0
3.416806270E0,-6.949143410E-1,7.184028625E-3,4.886308193E0,4.935480251E0
3.421548510E0,-1.652767658E-1,3.498668671E-1,5.338978767E0,5.352982114E0
3.426290697E0,-2.108259201E-1,6.409864426E-1,5.660978794E0,5.701051841E0
3.431032937E0,-3.883969784E-1,1.323911190E0,7.329737186E0,7.458460986E0
3.435775124E0,2.110087872E0,1.783397675E0,4.594769955E0,5.361426026E0
3.440517364E0,3.075629950E0,1.595689774E0,1.941637516E0,3.971861237E0
3.445259603E0,1.616580248E0,1.135147095E0,1.035360813E0,2.230215828E0
3.450001843E0,-4.691116810E-1,9.191741943E-1,1.022467613E0,1.452717106E0
3.454744030E0,-1.591134310E0,1.055099964E0,3.902916908E-1,1.948659008E0
3.459486270E0,-1.604058743E0,1.585181236E0,-9.074192047E-1,2.430887413E0
3.464228510E0,-1.505041122E0,1.920151234E0,-2.660924911E0,3.610076305E0
3.468970697E0,-3.028828144E0,1.356865883E0,-3.343312979E0,4.710905075E0
3.473712937E0,-2.821628332E0,1.223474979E0,-4.760809898E0,5.667785137E0
3.478455176E0,-1.009449959E0,1.316254616E0,-5.518452644E0,5.762363666E0
3.483197364E0,7.635440826E-1,1.299568176E0,-6.249624252E0,6.428816400E0
3.487939603E0,9.991645813E-1,7.882709503E-1,-6.147403717E0,6.277760223E0
3.492681843E0,-6.620240211E-1,-5.228824615E-1,-4.749244690E0,4.823588602E0
3.497424082E0,-1.382615566E0,-1.036640644E0,-3.300517797E0,3.725542559E0
3.502166270E0,-7.536332607E-1,-9.038419724E-1,-1.803361416E0,2.153370799E0
3.506908510E0,-1.584744453E-2,-4.726324081E-1,-5.507502556E-1,7.259189891E-1
3.511650749E0,-1.772994995E-1,-6.239986420E-2,3.232307434E-1,3.739077013E-1
3.516392937E0,-7.176339626E-1,1.935834885E-1,7.264533043E-1,1.039330301E0
3.521135176E0,-9.952116013E-1,4.308099747E-1,9.963865280E-1,1.472694632E0
3.525877416E0,-6.121311188E-1,8.106975555E-1,1.452920914E0,1.772826617E0
3.530619655E0,-2.352859974E-1,1.398519993E0,2.553219318E0,2.920641464E0
3.535361843E0,-2.939798832E-1,1.843951225E0,3.569833279E0,4.028683399E0
3.540104082E0,-3.301570415E-1,1.919530392E0,3.838063240E0,4.303990013E0
3.544846322E0,5.870540142E-1,1.845337868E0,3.076384544E0,3.635112946E0
3.549588562E0,1.924258232E0,1.752987385E0,1.414313793E0,2.962434475E0
3.554330749E0,2.452259541E0,1.633245468E0,-5.693826675E-1,3.000877244E0
3.559072989E0,1.926727057E0,1.283226967E0,-2.627942562E0,3.502146586E0
3.563815228E0,1.543853521E0,1.060936928E0,-3.560121298E0,4.022876398E0
3.568557416E0,1.678966045E0,9.490990639E-1,-3.391091585E0,3.901181636E0
3.573299655E0,1.761490583E0,7.663588524E-1,-1.990412951E0,2.766206550E0
3.578041895E0,1.653203964E0,1.115388870E-1,-4.064955711E-1,1.706095812E0
3.582784135E0,5.513134003E-1,-1.176221848E0,2.074880600E0,2.447973408E0
3.587526374E0,1.188154221E-1,-2.514678001E0,3.160598278E0,4.040681134E0
3.592268562E0,5.626585484E-1,-3.390507698E0,2.116670132E0,4.036386941E0
3.597010801E0,1.006183624E-1,-4.090785503E0,1.522741795E0,4.366164525E0
3.601753041E0,-6.033856869E-1,-4.094311237E0,1.765604496E0,4.499424189E0
3.606495280E0,-1.307365894E-1,-2.941542625E0,1.385625362E0,3.254185415E0
3.611237468E0,3.726842403E-1,-1.900563717E0,5.542950630E-1,2.014517064E0
3.615979707E0,9.492206573E-1,-1.371197701E0,-2.155957222E-1,1.681572034E0
3.620721947E0,1.571881294E0,-1.001199245E0,-1.126314640E0,2.177566394E0
3.625464187E0,1.736854315E0,-5.335240364E-1,-2.117267370E0,2.790005721E0
3.630206374E0,1.667325735E0,7.610750198E-2,-2.898527622E0,3.344731654E0
3.634948614E0,1.482395411E0,5.323824883E-1,-3.151170969E0,3.522897351E0
3.639690853E0,1.318883181E0,7.532362938E-1,-3.787224770E0,4.080427577E0
3.644433093E0,9.518311024E-1,3.771467209E-1,-4.791998386E0,4.900150062E0
3.649175332E0,3.849134445E-1,-4.361896515E-1,-5.817008495E0,5.846024941E0
3.653917520E0,-8.335614204E-2,-1.377403259E0,-6.494644642E0,6.639623258E0
3.658659760E0,-2.891206741E-1,-2.140758514E0,-6.548968315E0,6.896044067E0
3.663401999E0,-4.142131805E-1,-2.691647530E0,-5.893433571E0,6.492233686E0
3.668144239E0,-6.494693756E-1,-3.072128773E0,-4.831412315E0,5.762146356E0
3.672886478E0,-9.955756664E-1,-3.307242632E0,-3.650169611E0,5.025212724E0
3.677628666E0,-1.571401596E0,-3.369184017E0,-2.305608511E0,4.374532492E0
3.682370905E0,-1.977563143E0,-3.237546444E0,-8.367199898E-1,3.884914838E0
3.687113145E0,-1.900222301E0,-3.193231106E0,6.817245483E-2,3.716479137E0
3.691855385E0,-1.415505409E0,-2.959825754E0,5.680456161E-1,3.329699668E0
3.696597624E0,-1.276906967E0,-2.658603668E0,1.318156719E0,3.230511106E0
3.701339864E0,-1.615873575E0,-2.209833622E0,2.796732426E0,3.913582030E0
3.706082051E0,-1.641246080E0,-1.636459351E0,4.139974117E0,4.744583606E0
3.710824291E0,-1.430436850E0,-1.250027657E0,4.670151234E0,5.041728996E0
3.715566530E0,-1.893722296E0,-1.518696785E0,4.508536816E0,5.120500784E0
3.720308770E0,-2.637285233E0,-2.132401943E0,3.416878700E0,4.814298651E0
3.725051010E0,-2.865756512E0,-2.701860428E0,1.598494053E0,4.250622707E0
3.729793197E0,-3.019718409E0,-3.261196852E0,-2.286148071E-2,4.444617736E0
3.734535437E0,-3.271964550E0,-3.610489845E0,-9.637050629E-1,4.966902092E0
3.739277676E0,-3.559340000E0,-3.576972246E0,-1.236944199E0,5.195542574E0
3.744019916E0,-3.337687016E0,-3.122567177E0,-9.600243568E-1,4.670356213E0
3.748762155E0,-3.572626591E0,-2.462485313E0,-7.291412354E-2,4.339678691E0
3.753504395E0,-4.083847523E0,-2.074315548E0,9.201126099E-1,4.671959203E0
3.758246635E0,-4.246482849E0,-1.563175201E0,2.570878506E0,5.204377925E0
3.762988822E0,-4.328071594E0,-1.113451004E0,3.921693325E0,5.945725809E0
3.767731062E0,-4.102121830E0,-5.937166214E-1,4.981085300E0,6.480055070E0
3.772473301E0,-3.478580475E0,-1.358242035E-1,5.243439674E0,6.293856525E0
3.777215541E0,-2.708207846E0,5.706195831E-1,5.176116467E0,5.869597782E0
3.781957780E0,-3.177709579E-1,1.554811954E0,4.836366653E0,5.090074754E0
3.786700020E0,2.952907562E0,3.197798729E0,3.462425709E0,5.561831674E0
3.791442260E0,3.706298351E0,3.974588871E0,1.729161263E0,5.702981925E0
3.796184447E0,2.696460247E0,3.529077530E0,1.299130440E0,4.627421093E0
3.800926687E0,5.274791241E0,3.629508018E0,4.352550507E0,7.742186190E0
3.805668926E0,1.901526928E0,3.255964279E0,5.633541107E0,6.778930111E0
3.810411166E0,4.836373329E-1,3.706629753E0,1.788878918E0,4.144043554E0
3.815153405E0,2.526313782E0,5.330657959E0,-1.298274517E0,6.040173203E0
3.819895645E0,2.737344742E0,6.007974625E0,-7.938013077E-1,6.649732013E0
3.824637885E0,2.545090675E0,6.138638020E0,4.843561649E0,8.223165615E0
3.829380124E0,3.293095112E0,6.593881130E0,6.926933765E0,1.011465052E1
3.834122364E0,3.760054588E0,7.491599083E0,3.477419376E0,9.074938724E0
3.838864551E0,2.829045296E0,6.985061169E0,-5.754227638E-1,7.558153754E0
3.843606791E0,2.156167507E0,5.743966103E0,-2.863098860E0,6.770490380E0
3.848349030E0,2.087055206E0,4.767527103E0,-2.881388664E0,5.948740602E0
3.853091270E0,2.640505791E0,4.158137798E0,-2.232065678E0,5.407818226E0
3.857833510E0,3.138416290E0,3.838595867E0,-9.328289032E-1,5.045259637E0
3.862575749E0,4.280601978E0,3.484159470E0,-8.464746475E-1,5.583855284E0
3.867317989E0,5.427719593E0,3.040556431E0,-2.230510950E0,6.609107541E0
3.872060228E0,5.482196331E0,2.552556515E0,-2.686795473E0,6.617317530E0
3.876802468E0,4.994297504E0,2.007261753E0,-2.097832680E0,5.776937706E0
3.881544707E0,4.721188545E0,1.652009487E0,-1.347282887E0,5.180147469E0
3.886286895E0,4.643375397E0,1.607176304E0,-7.904763222E-1,4.976826656E0
3.891029135E0,4.389255047E0,1.729586601E0,-2.069439888E-1,4.722272281E0
3.895771374E0,4.100927353E0,1.954556465E0,8.238716125E-1,4.616996920E0
3.900513614E0,3.970663548E0,2.205333710E0,1.638966560E0,4.828651692E0
3.905255853E0,3.620012283E0,2.321521282E0,1.869097710E0,4.689080533E0
3.909998093E0,3.443651199E0,2.245750904E0,1.075428963E0,4.249550348E0
3.914740332E0,3.368490696E0,1.896672726E0,-2.635440826E-1,3.874732569E0
3.919482572E0,2.482365131E0,1.348024845E0,-8.828172684E-1,2.959505695E0
3.924224812E0,1.554468632E0,7.521033287E-1,-1.055621624E0,2.023948902E0
3.928967051E0,1.685317993E0,3.941621780E-1,-1.424594879E0,2.241680426E0
3.933709291E0,1.873267174E0,1.962366104E-1,-1.975582838E0,2.729572542E0
3.938451530E0,1.364781380E0,2.382707596E-2,-2.365835190E0,2.731368172E0
3.943193770E0,9.481539726E-1,-1.876335144E-1,-1.974503040E0,2.198377708E0
3.947936010E0,9.411220551E-1,-4.092159271E-1,-1.371775150E0,1.713165334E0
3.952678249E0,9.408192635E-1,-5.207386017E-1,-9.503364563E-1,1.435078032E0
3.957420437E0,5.207171440E-1,-3.729324341E-1,-7.920045853E-1,1.018575578E0
3.962162676E0,-1.520423889E-1,-2.662625313E-1,-6.342654228E-1,7.044893542E-1
3.966904916E0,-7.739279270E-1,-9.749746323E-2,-2.429299355E-1,8.169976408E-1
3.971647155E0,-8.208115101E-1,2.739934921E-1,3.267407417E-1,9.249667460E-1
3.976389395E0,5.304908752E-2,7.273950577E-1,8.374981880E-1,1.110549860E0
3.981131635E0,3.643654346E0,1.959965706E0,4.437441826E-1,4.161080565E0
3.985873874E0,1.470948696E0,2.038091183E0,4.335036278E-1,2.550574667E0
3.990616114E0,-2.455176592E0,3.130387783E0,1.773628998E1,1.817699651E1
3.995358353E0,-1.950447559E0,6.337244987E0,4.262464142E1,4.313728058E1
4.000100593E0,-1.796417713E0,4.502776623E0,9.277136803E0,1.046744387E1
4.004842832E0,1.507753134E0,4.143570423E0,-6.494738102E0,7.850103081E0
4.009585072E0,-9.268546104E-1,2.213254929E0,-5.969920635E0,6.434089620E0
4.014327312E0,-1.245577097E0,1.779001236E0,-7.561615467E0,7.867295353E0
4.019069551E0,-1.028429747E0,2.362938881E0,-8.150021553E0,8.547748196E0
4.023811791E0,-2.108228683E0,2.489053249E0,-8.523086548E0,9.125953022E0
4.028554030E0,-2.030205488E0,2.229260445E0,-9.562244415E0,1.002635800E1
4.033296270E0,-2.368892431E0,1.469846725E0,-9.713485718E0,1.010563731E1
4.038038510E0,-1.359841943E0,1.024072647E0,-9.432724953E0,9.585102760E0
4.042780749E0,-2.756915092E-1,4.329786301E-1,-7.512171268E0,7.529687475E0
4.047522989E0,-1.990203857E-1,3.039360046E-2,-3.241707563E0,3.247953327E0
4.052265228E0,6.276583672E-2,6.910753250E-2,6.882014275E-1,6.945045760E-1
4.057007468E0,1.287876844E0,7.055282593E-1,2.857726097E0,3.212941851E0
4.061749707E0,2.635340214E0,3.571628094E0,9.693914413E0,1.066177855E1
4.066491947E0,1.259963036E0,3.985100269E0,1.909645844E1,1.954848474E1
4.071234187E0,9.638853073E-1,2.412856579E0,1.915201569E1,1.932745862E1
4.075976426E0,-2.655491590E0,-1.345434189E0,1.317300034E1,1.350517555E1
4.080718666E0,-3.275715828E0,-5.010881424E0,5.087726116E0,7.856475282E0
4.085460905E0,-4.238731384E0,-6.984463215E0,6.736001968E-1,8.197762339E0
4.090203145E0,-4.005308151E0,-7.310293674E0,-5.247058868E-1,8.352137646E0
4.094945385E0,-3.029312849E0,-7.104731560E0,-2.702452183E0,8.182737603E0
4.099687624E0,-1.914448738E0,-6.461486340E0,-5.064991474E0,8.430305945E0
4.104429864E0,-1.719347358E0,-5.918450356E0,-7.207448006E0,9.483222907E0
4.109172103E0,-1.203764677E0,-5.083358288E0,-8.552704811E0,1.002189306E1
4.113914343E0,-4.312170744E-1,-4.144550323E0,-8.023096085E0,9.040648004E0
4.118656582E0,1.292363405E-1,-3.334326267E0,-6.030266762E0,6.891919247E0
4.123398822E0,9.676690102E-1,-2.702532768E0,-4.633024693E0,5.450227929E0
4.128141062E0,1.680355072E0,-1.856131554E0,-2.296777248E0,3.397646721E0
4.132883301E0,1.271136999E0,-1.076084614E0,1.243162155E-1,1.670090383E0
4.137625541E0,8.248621225E-1,-4.650716782E-1,2.093993187E0,2.298150703E0
4.142367780E0,1.294647455E0,3.301239014E-2,2.862491608E0,3.141824320E0
4.147110020E0,1.876338840E0,3.980889320E-1,2.340536118E0,3.026091796E0
4.151852260E0,1.493607998E0,5.328159332E-1,2.446262836E0,2.915297504E0
4.156594499E0,1.138193130E0,6.117482185E-1,2.538368702E0,2.848339016E0
4.161336739E0,8.473684788E-1,3.981332779E-1,1.993210793E0,2.202142754E0
4.166078978E0,5.673146844E-1,1.872396469E-1,7.032065392E-1,9.227155971E-1
4.170821218E0,1.247907877E-1,-6.886196136E-2,-4.212560654E-1,4.447149458E-1
4.175563457E0,-7.277741432E-1,-1.039262772E0,-1.096746445E0,1.677073366E0
4.180305697E0,-1.352613568E0,-1.823359489E0,-1.830220461E0,2.916146469E0
4.185047937E0,-1.555877447E0,-1.972529888E0,-2.144955397E0,3.303401647E0
4.189790176E0,-1.395815372E0,-1.705422401E0,-1.835754871E0,2.868233266E0
4.194532416E0,-1.251353383E0,-1.551233292E0,-1.670768499E0,2.600707095E0
4.199274655E0,-1.220020890E0,-1.677402020E0,-1.747520685E0,2.712186766E0
4.204016947E0,-1.382650495E0,-2.035840988E0,-1.843118429E0,3.074647372E0
4.208759187E0,-9.586703181E-1,-2.007354736E0,-1.614946365E0,2.748922258E0
4.213501426E0,-3.911104798E-1,-1.575761795E0,-1.433708668E0,2.165990117E0
4.218243666E0,-1.581689417E-1,-1.011844635E0,-2.373266220E-1,1.051271090E0
4.222985905E0,-9.886452556E-2,-1.764459610E-1,5.447044373E-1,5.810424215E-1
4.227728145E0,3.124147654E-1,8.047761917E-1,7.314891815E-1,1.131522924E0
4.232470385E0,1.163483858E0,2.103259087E0,1.654438972E-1,2.409308024E0
4.237212624E0,2.106518745E0,3.330706596E0,-3.883886337E-2,3.941133861E0
4.241954864E0,1.863513947E0,3.926959991E0,-1.499276161E-1,4.349273191E0
4.246697103E0,4.928603172E-1,4.159151077E0,-4.994244576E-1,4.217922921E0
4.251439343E0,-1.218577504E0,3.036269188E0,-1.081557512E0,3.445813165E0
4.256181582E0,-1.638719320E0,1.016706467E0,-2.233604670E0,2.950946097E0
4.260923822E0,-1.612443686E0,-8.954253197E-1,-2.324687958E0,2.967479611E0
4.265666062E0,-1.772210956E0,-2.295658588E0,-1.639968872E0,3.331707959E0
4.270408301E0,-1.405516744E0,-3.093173981E0,-1.069160461E0,3.561784200E0
4.275150593E0,-8.036024570E-1,-3.612768173E0,-6.026587486E-1,3.749809108E0
4.279892832E0,-6.442155838E-1,-3.992140293E0,-4.583544731E-1,4.069678938E0
4.284635072E0,-4.780552685E-1,-4.086711884E0,1.314001083E-1,4.116675461E0
4.289377312E0,-4.153567255E-1,-4.047832966E0,5.810127258E-1,4.110358709E0
4.294119551E0,-5.903567672E-1,-4.123795986E0,7.080516815E-1,4.225582993E0
4.298861791E0,-6.479840279E-1,-4.468727112E0,7.793855667E-2,4.516135485E0
4.303604030E0,-3.421348333E-2,-4.365732193E0,-9.576466084E-1,4.469661639E0
4.308346270E0,1.027935386E0,-3.452423573E0,-1.787172556E0,4.021177119E0
4.313088510E0,1.208671570E0,-2.501022816E0,-1.102594614E0,2.988597827E0
4.317830749E0,1.247161150E0,-2.252155781E0,-6.792101860E-1,2.662506915E0
4.322573041E0,1.336092710E0,-2.874274254E0,-9.842162132E-1,3.318927202E0
4.327315280E0,9.983026385E-1,-3.173503399E0,-3.832101822E-1,3.348818004E0
4.332057520E0,1.788375974E-1,-3.631368160E0,9.962368011E-2,3.637133827E0
4.336799760E0,-3.102347851E-1,-4.004496098E0,4.056515694E-1,4.036928017E0
4.341541999E0,-3.381783366E-1,-3.988127232E0,7.764177322E-1,4.077051373E0
4.346284239E0,-4.410007596E-1,-4.004682064E0,1.104002476E0,4.177413263E0
4.351026478E0,-4.488833547E-1,-4.020774364E0,1.358037949E0,4.267597664E0
4.355768718E0,-4.948967099E-1,-4.811436653E0,1.063581467E0,4.952378313E0
4.360510957E0,-1.040627837E0,-4.620835304E0,6.765232086E-1,4.784632573E0
4.365253249E0,-1.192144632E0,-3.952802658E0,9.945163727E-1,4.246754113E0
4.369995489E0,-1.216454864E0,-3.513720036E0,4.319677353E-1,3.743339024E0
4.374737728E0,-1.501312375E0,-3.477867603E0,-6.950001717E-1,3.851302007E0
4.379479968E0,-1.551232100E0,-3.789239407E0,-1.566548824E0,4.383917372E0
4.384222207E0,-9.319621325E-1,-3.899058819E0,-2.569139957E0,4.761480149E0
4.388964447E0,-2.800608873E-1,-3.688160419E0,-3.231207848E0,4.911381225E0
4.393706687E0,-4.509892464E-1,-3.160200119E0,-2.899115801E0,4.312206920E0
4.398448978E0,-4.887183905E-1,-2.669451714E0,-3.423498392E0,4.368656470E0
4.403191218E0,-5.064698458E-1,-2.495017052E0,-3.796372414E0,4.571002658E0
4.407933457E0,-7.775121927E-1,-2.399079323E0,-3.634611130E0,4.423856335E0
4.412675697E0,-1.261795521E0,-1.955558777E0,-2.900949240E0,3.719118788E0
4.417417937E0,-1.454742074E0,-1.483474731E0,-1.706671238E0,2.688809866E0
4.422160176E0,-1.258811593E0,-8.259429932E-1,-6.897974014E-2,1.507165107E0
4.426902416E0,-1.451189637E0,-2.064456940E-1,1.018826485E0,1.785099043E0
4.431644655E0,-1.466012001E0,5.224256516E-1,2.166899681E0,2.667878179E0
4.436386947E0,-1.796118855E0,7.934303284E-1,2.621018887E0,3.274952615E0
4.441129187E0,-1.928054810E0,8.936185837E-1,2.820890427E0,3.531766176E0
4.445871426E0,-1.903493404E0,7.438430786E-1,2.576337337E0,3.288480461E0
4.450613666E0,-1.603696465E0,7.468118668E-1,2.072967052E0,2.725208748E0
4.455355905E0,-1.174863338E0,1.669765472E0,9.656095505E-2,2.043953183E0
4.460098197E0,-6.266612411E-1,2.369173050E0,-3.035206795E-1,2.469374426E0
4.464840437E0,-1.352868676E-1,2.859664917E0,-4.513311386E-1,2.898221139E0
4.469582676E0,5.297902226E-1,2.698977470E0,-2.509822845E-1,2.761910421E0
4.474324916E0,2.111488342E0,2.894523621E0,-2.103504658E0,4.154681920E0
4.479067155E0,2.550025463E0,3.090532303E0,-2.828829050E0,4.904721559E0
4.483809395E0,2.588346243E0,2.025878906E0,-1.649586678E0,3.677615780E0
4.488551635E0,2.014469147E0,6.703758240E-1,-1.121522188E0,2.401104268E0
4.493293926E0,1.786676645E-1,-8.260354996E-1,6.761267185E-1,1.082314243E0
4.498036166E0,-7.013648748E-1,-1.733217716E0,2.681452990E0,3.268967188E0
4.502778405E0,-5.164018869E-1,-2.094026566E0,3.953093052E0,4.503172531E0
4.507520645E0,-1.331337094E-1,-2.199440479E0,5.090074539E0,5.546541429E0
4.512262885E0,8.641791344E-2,-2.310736656E0,5.749417305E0,6.196996958E0
4.517005176E0,9.821155667E-1,-1.440761089E0,5.356190681E0,5.632860918E0
4.521747416E0,-6.921243668E-2,-1.108763218E0,4.398793221E0,4.536907320E0
4.526489655E0,-1.671280861E0,-1.988420010E0,2.241975546E0,3.431245867E0
4.531231895E0,-1.670295477E0,-2.499510288E0,-7.656135559E-1,3.102193221E0
4.535974135E0,-1.540870190E0,-2.468026638E0,-1.255178213E0,3.168739304E0
4.540716426E0,-1.406521320E0,-2.058479309E0,-2.052939653E0,3.229582095E0
4.545458666E0,-1.345391273E0,-1.333014011E0,-2.952884197E0,3.508066293E0
4.550200905E0,-1.443398476E0,-8.701019287E-1,-3.772890091E0,4.132212018E0
4.554943145E0,-1.505151987E0,-8.838796616E-1,-4.433323860E0,4.764565689E0
4.559685385E0,-1.409376144E0,-1.092061043E0,-4.774415016E0,5.096467128E0
4.564427676E0,-1.357231975E0,-1.629279613E0,-4.524778366E0,4.997024110E0
4.569169916E0,-1.324788332E0,-1.954224586E0,-3.971329212E0,4.620120515E0
4.573912155E0,-1.566510201E0,-1.902578354E0,-2.995281696E0,3.878849190E0
4.578654395E0,-2.064937115E0,-1.901027203E0,-1.631211281E0,3.246339470E0
4.583396687E0,-2.608875036E0,-1.977845192E0,-5.404753685E-1,3.318164279E0
4.588138926E0,-2.858100176E0,-2.138761520E0,1.286687851E-1,3.572057266E0
4.592881166E0,-2.806847811E0,-2.238340378E0,5.692193508E-1,3.634910308E0
4.597623405E0,-2.723290205E0,-2.145720959E0,7.508275509E-1,3.547417368E0
4.602365645E0,-2.438245296E0,-1.843779564E0,7.817513943E-1,3.155265195E0
4.607107937E0,-2.086206436E0,-1.559702873E0,8.692684174E-1,2.746007634E0
4.611850176E0,-1.942907333E0,-1.242692947E0,8.660664558E-1,2.463583929E0
4.616592416E0,-1.859129071E0,-7.009220123E-1,7.666285038E-1,2.129641245E0
4.621334655E0,-1.732613921E0,-3.996753693E-2,8.013365269E-1,1.909368648E0
4.626076947E0,-1.288585424E0,6.760845184E-1,7.104227543E-1,1.619334172E0
4.630819187E0,-8.445305824E-1,1.350266457E0,4.385597706E-1,1.651903775E0
4.635561426E0,-1.829631180E-1,2.014262199E0,1.255574226E-1,2.026448217E0
4.640303666E0,3.419362605E-1,2.565556526E0,-8.362078667E-2,2.589593237E0
4.645045957E0,9.661509991E-1,3.102239609E0,-4.018497467E-1,3.273961142E0
4.649788197E0,1.635973215E0,3.693722725E0,-6.905715466E-1,4.098400296E0
4.654530437E0,2.182405233E0,4.172927856E0,-8.553886414E-1,4.786220766E0
4.659272676E0,2.754249334E0,4.619237900E0,-7.710123062E-1,5.433020168E0
4.664014916E0,3.695292950E0,4.886492729E0,-1.008440971E0,6.208860956E0
4.668757207E0,4.337117195E0,5.019355774E0,-1.055394888E0,6.717021387E0
4.673499447E0,4.445715904E0,5.004501343E0,-7.741575241E-1,6.738601002E0
4.678241687E0,4.247186184E0,4.867097855E0,-2.287154198E-1,6.463709674E0
4.682983926E0,4.035577774E0,4.714303970E0,3.596608639E-1,6.216100533E0
4.687726218E0,3.848834276E0,4.579576492E0,8.547081947E-1,6.042894359E0
4.692468457E0,3.587434769E0,4.465164185E0,1.254499912E0,5.863544103E0
4.697210697E0,3.184065342E0,4.373400688E0,1.540218115E0,5.624693549E0
4.701952937E0,2.693804502E0,4.266329765E0,1.627593279E0,5.301623548E0
4.706695228E0,2.245276928E0,4.118106842E0,1.518191099E0,4.930007775E0
4.711437468E0,1.885646224E0,3.929030418E0,1.285701036E0,4.543783541E0
4.716179707E0,1.635145426E0,3.747189522E0,1.042108536E0,4.219137362E0
4.720921999E0,1.549347520E0,3.510870934E0,5.281717777E-1,3.873713706E0
4.725664239E0,1.651366830E0,3.249382973E0,-1.111550331E-1,3.646622760E0
4.730406478E0,1.917678237E0,3.020476341E0,-6.517043114E-1,3.636686082E0
4.735148718E0,2.172711611E0,2.876532555E0,-8.325364590E-1,3.699761105E0
4.739891010E0,2.451529980E0,2.826577187E0,-6.793847084E-1,3.802775488E0
4.744633249E0,2.804027081E0,2.910941124E0,-3.380100727E-1,4.055908888E0
4.749375489E0,3.008939028E0,3.069606781E0,1.127243042E-1,4.299872862E0
4.754117728E0,3.063918352E0,3.249897957E0,6.464710236E-1,4.513020849E0
4.758860020E0,3.034657478E0,3.387531281E0,1.145418167E0,4.690042320E0
4.763602260E0,2.935603380E0,3.528544426E0,1.579875946E0,4.854317766E0
4.768344499E0,2.706343174E0,3.737999916E0,1.946730614E0,5.008662180E0
4.773086791E0,2.340562344E0,4.018527031E0,2.071179867E0,5.090832704E0
4.777829030E0,1.989014506E0,4.375284195E0,1.857274055E0,5.152548632E0
4.782571270E0,1.775161386E0,4.756000519E0,1.364674568E0,5.256717184E0
4.787313562E0,1.661155224E0,5.022408485E0,6.552219391E-1,5.330416444E0
4.792055801E0,1.654693127E0,5.059872627E0,-1.917352676E-1,5.327014432E0
4.796798041E0,1.639896393E0,4.882658958E0,-1.026872396E0,5.252055369E0
4.801540332E0,1.569295049E0,4.581548691E0,-1.840059042E0,5.180645967E0
4.806282572E0,1.454686165E0,4.114743233E0,-2.425920486E0,4.993226804E0
4.811024812E0,1.304153681E0,3.598932266E0,-2.836464643E0,4.764311278E0
4.815767103E0,1.198924303E0,3.086805344E0,-3.122399330E0,4.551391468E0
4.820509343E0,1.168080449E0,2.647669792E0,-3.283921003E0,4.377065732E0
4.825251582E0,1.108094096E0,2.263781548E0,-3.041922808E0,3.950427039E0
4.829993822E0,8.643618226E-1,1.945984840E0,-2.493072271E0,3.278625887E0
4.834736114E0,5.029757619E-1,1.614111900E0,-1.825035572E0,2.487789517E0
4.839478353E0,1.634800434E-1,1.246200562E0,-1.075527191E0,1.654237076E0
4.844220645E0,-1.966971159E-1,8.545646667E-1,-3.816127777E-1,9.563466093E-1
4.848962885E0,-6.260925531E-1,5.738468170E-1,2.216954231E-1,8.777476375E-1
4.853705124E0,-1.074538946E0,3.682966232E-1,8.701786995E-1,1.430904371E0
4.858447364E0,-1.464877725E0,1.976976395E-1,1.457717896E0,2.076028075E0
4.863189655E0,-1.768567443E0,4.353904724E-2,1.981457710E0,2.656294620E0
4.867931895E0,-1.896594167E0,-9.146499634E-2,2.441779137E0,3.093173230E0
4.872674187E0,-1.838322997E0,-2.092790604E-1,2.754776001E0,3.318436376E0
4.877416426E0,-1.706341028E0,-3.766732216E-1,2.958689213E0,3.436178732E0
4.882158666E0,-1.566080332E0,-6.586723328E-1,3.123723507E0,3.555855086E0
4.886900957E0,-1.440932512E0,-1.018062592E0,3.246520042E0,3.694946594E0
4.891643197E0,-1.368038416E0,-1.544525623E0,3.364641666E0,3.946885108E0
4.896385437E0,-1.258700013E0,-2.120785236E0,3.349130154E0,4.159174020E0
4.901127728E0,-1.115978003E0,-2.650967598E0,3.197241783E0,4.300626830E0
4.905869968E0,-9.188327789E-1,-3.091911793E0,2.987572670E0,4.396562597E0
4.910612207E0,-6.991369724E-1,-3.460168362E0,2.676372528E0,4.429957958E0
4.915354499E0,-5.156457424E-1,-3.812028885E0,2.132211208E0,4.398156362E0
4.920096739E0,-4.494137764E-1,-4.131738663E0,1.246958256E0,4.339140700E0
4.924838978E0,-4.403979778E-1,-4.354087353E0,1.575660706E-1,4.379138514E0
4.929581270E0,-4.610683918E-1,-4.450209141E0,-8.714461327E-1,4.558109676E0
4.934323510E0,-4.633016586E-1,-4.432448387E0,-1.634182453E0,4.746767260E0
4.939065801E0,-3.732709885E-1,-4.296425819E0,-2.132147789E0,4.810889756E0
4.943808041E0,-1.616456509E-1,-4.085465431E0,-2.404787779E0,4.743433500E0
4.948550280E0,1.436905861E-1,-3.802219868E0,-2.443494558E0,4.521967333E0
4.953292572E0,4.846177101E-1,-3.440035820E0,-2.261457443E0,4.145225028E0
4.958034812E0,7.364497185E-1,-3.085584641E0,-1.867880344E0,3.681326900E0
4.962777103E0,8.746294975E-1,-2.837279797E0,-1.389495373E0,3.278083402E0
4.967519343E0,9.009275436E-1,-2.774393082E0,-8.833918571E-1,3.047836706E0
4.972261582E0,8.529255390E-1,-2.863581181E0,-3.996577263E-1,3.014515790E0
4.977003874E0,7.627713680E-1,-3.035576344E0,-2.463150024E-2,3.130040033E0
4.981746114E0,6.680366993E-1,-3.233053684E0,2.464632988E-1,3.310536711E0
4.986488353E0,5.282043219E-1,-3.456398010E0,4.789443016E-1,3.529174784E0
4.991230645E0,3.537726402E-1,-3.600587845E0,6.544179916E-1,3.676635802E0
4.995972885E0,2.025246620E-1,-3.591585636E0,7.348184586E-1,3.671574838E0
5.000715176E0,8.569765091E-2,-3.462840080E0,6.646051407E-1,3.527081726E0
5.005457416E0,-3.624391556E-2,-3.293233395E0,4.359278679E-1,3.322157871E0
5.010199655E0,-1.909782887E-1,-3.151971817E0,7.910585403E-2,3.158742911E0
5.014941947E0,-3.699781895E-1,-3.046329021E0,-3.151812553E-1,3.084857143E0
5.019684187E0,-5.578639507E-1,-2.998253822E0,-6.847043037E-1,3.125629241E0
5.024426478E0,-7.078540325E-1,-3.015268326E0,-9.600253105E-1,3.242614532E0
5.029168718E0,-7.605619431E-1,-3.071164608E0,-1.119593143E0,3.356187618E0
5.033911010E0,-7.331929207E-1,-3.161157608E0,-1.185072422E0,3.454690424E0
5.038653249E0,-6.064121723E-1,-3.277971745E0,-1.108550072E0,3.513078101E0
5.043395489E0,-3.982975483E-1,-3.412046432E0,-8.846325874E-1,3.547291447E0
5.048137780E0,-1.628456116E-1,-3.527604103E0,-5.413169861E-1,3.572608778E0
5.052880020E0,3.855109215E-2,-3.641601562E0,-1.400365829E-1,3.644496998E0
5.057622312E0,1.384952068E-1,-3.765839577E0,2.554082870E-1,3.777030849E0
5.062364551E0,1.495957375E-1,-3.911955833E0,6.029825211E-1,3.960980339E0
5.067106843E0,7.895755768E-2,-4.130142689E0,8.799209595E-1,4.223573584E0
5.071849082E0,-5.213141441E-2,-4.354115009E0,1.082702637E0,4.487012391E0
5.076591322E0,-3.202474117E-1,-4.224995136E0,1.280056477E0,4.426249755E0
5.081333614E0,-2.735025883E-1,-3.513085842E0,1.847480297E0,3.978662998E0
5.086075853E0,-4.284203053E-1,-2.515891552E0,2.486191750E0,3.562920666E0
5.090818145E0,-9.882848263E-1,-2.063034534E0,2.674429417E0,3.519288436E0
5.095560385E0,-1.092323422E0,-1.829774857E0,2.153793335E0,3.029863399E0
5.100302676E0,-1.205585718E0,-2.213864326E0,2.075857162E0,3.265549745E0
5.105044916E0,-1.148064137E0,-2.803307056E0,2.070987225E0,3.669546266E0
5.109787207E0,-7.685570717E-1,-3.361697674E0,2.365894318E0,4.182002767E0
5.114529447E0,-3.006774187E-1,-3.842883110E0,2.532588005E0,4.612175139E0
5.119271687E0,3.776884079E-2,-4.181804180E0,2.325125217E0,4.784884530E0
5.124013978E0,2.501085997E-1,-4.402521610E0,1.948824883E0,4.821065159E0
5.128756218E0,3.581225872E-1,-4.521965504E0,1.380534172E0,4.741550211E0
5.133498510E0,1.839005947E-2,-4.582439899E0,9.320232868E-1,4.676297791E0
5.138240749E0,-5.665310621E-1,-4.611721516E0,7.555141449E-1,4.707412708E0
5.142983041E0,-1.086286306E0,-4.596015453E0,6.533107758E-1,4.767619003E0
5.147725280E0,-1.440385342E0,-4.563315868E0,3.919110298E-1,4.801266073E0
5.152467572E0,-1.513466835E0,-4.431187630E0,-1.420164108E-2,4.682542830E0
5.157209812E0,-1.205072522E0,-3.999827385E0,-6.800510883E-1,4.232409287E0
5.161952103E0,-8.631746769E-1,-3.159157753E0,-1.273970842E0,3.514021904E0
5.166694343E0,-2.492761612E-1,-2.324899673E0,-1.931168079E0,3.032607335E0
5.171436635E0,7.225780487E-1,-1.362505913E0,-2.441750050E0,2.888024360E0
5.176178874E0,1.488668203E0,-2.341384888E-1,-3.050360918E0,3.402301512E0
5.180921166E0,1.760055900E0,1.093217850E0,-3.640660286E0,4.188953253E0
5.185663405E0,1.910090923E0,2.742944717E0,-4.222984314E0,5.385702329E0
5.190405697E0,2.289320946E0,4.375838280E0,-5.392065048E0,7.311861359E0
5.195147937E0,2.783280373E0,5.777853012E0,-6.501708508E0,9.132494105E0
5.199890228E0,3.466698647E0,6.887852669E0,-7.055299759E0,1.045168736E1
5.204632468E0,4.099000454E0,7.545547485E0,-6.972557068E0,1.106135813E1
5.209374760E0,4.527351379E0,7.655951500E0,-6.553277969E0,1.104789374E1
5.214116999E0,4.719743729E0,7.342646599E0,-6.025355339E0,1.060638237E1
5.218859291E0,4.811692238E0,6.820590973E0,-5.623435020E0,1.006458468E1
5.223601530E0,4.839776516E0,6.218395233E0,-5.245152473E0,9.465912553E0
5.228343822E0,4.890597343E0,5.585706711E0,-4.817463875E0,8.850198869E0
5.233086062E0,4.714055061E0,4.866621971E0,-4.346284389E0,8.049628099E0
5.237828353E0,4.312140942E0,4.062925339E0,-3.948031425E0,7.119611924E0
5.242570593E0,3.937890053E0,3.179093361E0,-3.578851700E0,6.198531451E0
5.247312885E0,3.507033110E0,2.236252785E0,-3.154001951E0,5.219945982E0
5.252055124E0,3.019611835E0,1.274276733E0,-2.542218447E0,4.147856249E0
5.256797416E0,2.590034485E0,5.193033218E-1,-1.544280529E0,3.059862240E0
5.261539655E0,2.371260643E0,-6.735324860E-2,-4.632143974E-1,2.417019047E0
5.266281947E0,2.345312119E0,-5.999288559E-1,5.158448219E-1,2.475176649E0
5.271024187E0,2.432883739E0,-1.017619133E0,1.326139450E0,2.951799084E0
5.275766478E0,2.321938753E0,-1.327002048E0,1.908181190E0,3.285344649E0
5.280508718E0,2.074986219E0,-1.606759071E0,2.380211830E0,3.542972041E0
5.285251010E0,1.677893162E0,-1.689058304E0,2.649553299E0,3.562074690E0
5.289993301E0,1.301777840E0,-1.576234341E0,2.835616112E0,3.495691487E0
5.294735541E0,1.150118709E0,-1.496397018E0,3.035405397E0,3.574305948E0
5.299477832E0,1.066765785E0,-1.725803852E0,3.083151340E0,3.690827870E0
5.304220072E0,9.694389105E-1,-1.955650330E0,2.991693258E0,3.703323989E0
5.308962364E0,4.380112886E-1,-1.993967056E0,2.932442904E0,3.573091084E0
5.313704603E0,-4.688863754E-1,-1.906784534E0,2.703469038E0,3.341321076E0
5.318446895E0,-1.235890508E0,-1.647332191E0,2.225127935E0,3.031884402E0
5.323189135E0,-1.485692978E0,-1.269675255E0,1.631741047E0,2.545964988E0
5.327931426E0,-1.476900578E0,-9.219255447E-1,1.200531244E0,2.114818502E0
5.332673666E0,-1.342602968E0,-6.351308823E-1,9.218642712E-1,1.748086869E0
5.337415957E0,-1.117343426E0,-4.451274872E-1,6.739141941E-1,1.378678770E0
5.342158197E0,-9.031829238E-1,-1.493005753E-1,7.414739132E-1,1.178055016E0
5.346900489E0,-5.748337507E-1,2.612676620E-1,8.368105888E-1,1.048306536E0
5.351642780E0,-3.955956995E-1,7.189340591E-1,1.100644350E0,1.372872945E0
5.356385020E0,-3.498792350E-1,1.127741814E0,1.349611044E0,1.793228108E0
5.361127312E0,-3.481548727E-1,1.524508476E0,1.135497808E0,1.932535429E0
5.365869551E0,-4.059677720E-1,1.921539307E0,9.094204903E-1,2.164294057E0
5.370611843E0,-6.159585714E-1,2.279916763E0,1.169190645E0,2.635229055E0
5.375354082E0,-7.758646011E-1,2.561611176E0,1.416518450E0,3.028257290E0
5.380096374E0,-6.621543765E-1,2.711994171E0,1.545659304E0,3.190990988E0
5.384838614E0,-2.864070833E-1,2.822381973E0,1.572631955E0,3.243615311E0
5.389580905E0,3.105150461E-1,2.866777420E0,1.467657089E0,3.235560184E0
5.394323197E0,1.213396192E0,2.797489166E0,1.316211343E0,3.321247996E0
5.399065437E0,2.824920177E0,2.475890160E0,1.026864052E0,3.894182311E0
5.403807728E0,3.994009972E0,1.923920631E0,6.460160017E-1,4.480058362E0
5.408549968E0,4.745403290E0,1.211422920E0,1.976643801E-1,4.901578224E0
5.413292260E0,5.206517220E0,4.365720749E-1,-1.851252317E-1,5.228067337E0
5.418034551E0,5.391264439E0,-2.908382416E-1,-5.161108971E-1,5.423715478E0
5.422776791E0,5.287186623E0,-1.108085632E0,8.260881901E-2,5.402686403E0
5.427519082E0,5.120516300E0,-1.905634880E0,8.365411758E-1,5.527289807E0
5.432261322E0,4.956938267E0,-2.616618633E0,1.349507570E0,5.765336134E0
5.437003614E0,4.744706631E0,-3.279285431E0,1.633752346E0,5.994589283E0
5.441745905E0,4.417515278E0,-3.970287323E0,1.801121473E0,6.206582088E0
5.446488145E0,4.060753345E0,-4.658985615E0,2.318100214E0,6.600716120E0
5.451230437E0,3.667061806E0,-5.312165260E0,3.219479561E0,7.213285706E0
5.455972676E0,3.210240364E0,-5.919891357E0,3.809289932E0,7.737017944E0
5.460714968E0,2.593616962E0,-6.517291069E0,3.984944582E0,8.067323915E0
5.465457260E0,1.787322640E0,-7.089172363E0,3.714356422E0,8.200446979E0
5.470199499E0,8.577675223E-1,-7.582302094E0,2.973284006E0,8.189474216E0
5.474941791E0,1.713752747E-2,-7.936454773E0,1.800860047E0,8.138224927E0
5.479684030E0,-6.954447031E-1,-7.940671444E0,-1.037416101E0,8.038292013E0
5.484426322E0,-1.330317020E0,-7.683966160E0,-4.196070671E0,8.855511752E0
5.489168614E0,-1.996062040E0,-7.303523540E0,-6.400759220E0,9.914405598E0
5.493910853E0,-2.583060265E0,-6.742588997E0,-7.913294315E0,1.071237292E1
5.498653145E0,-2.184569359E0,-4.811853886E0,-8.878467560E0,1.033215695E1
5.503395437E0,-4.380140305E-1,-8.933477402E-1,-9.470327377E0,9.522448588E0
5.508137676E0,1.934526086E0,4.232081413E0,-9.777425766E0,1.082824819E1
5.512879968E0,4.255180359E0,9.735743523E0,-1.020279217E1,1.473052035E1
5.517622260E0,5.378269672E0,1.444965744E1,-1.052234459E1,1.866649727E1
5.522364499E0,4.758275986E0,1.732732773E1,-1.053265095E1,2.082820714E1
5.527106791E0,2.629060268E0,1.833411598E1,-1.016273594E1,2.112659387E1
5.531849030E0,-2.484357357E-1,1.794362831E1,-9.401799202E0,2.025905589E1
5.536591322E0,-2.877227306E0,1.661396027E1,-8.139838219E0,1.872322298E1
5.541333614E0,-4.577397346E0,1.464213753E1,-6.171250820E0,1.653569153E1
5.546075853E0,-5.198439598E0,1.227912807E1,-3.556652069E0,1.380038168E1
5.550818145E0,-5.063921928E0,9.773073196E0,-6.043229103E-1,1.102367775E1
5.555560437E0,-4.566409588E0,7.400628090E0,2.327080727E0,9.002038511E0
5.560302676E0,-3.857179403E0,5.321240425E0,5.055142403E0,8.291435179E0
5.565044968E0,-3.027602196E0,3.555788040E0,7.433790207E0,8.779022752E0
5.569787260E0,-2.201637506E0,2.053668976E0,9.296536446E0,9.771916591E0
5.574529499E0,-1.317696452E0,7.694702148E-1,1.031217480E1,1.042445957E1
5.579271791E0,-4.398976266E-1,-3.635244370E-1,1.041433620E1,1.042995966E1
5.584014082E0,2.205765843E-1,-1.368920326E0,9.874169350E0,9.971048954E0
5.588756322E0,5.885053277E-1,-2.244085312E0,8.970623016E0,9.265761421E0
5.593498614E0,6.719733477E-1,-2.964955807E0,7.889369965E0,8.454860706E0
5.598240905E0,5.484032631E-1,-3.474081516E0,6.679176331E0,7.548601524E0
5.602983145E0,3.148497939E-1,-3.793085098E0,5.384154320E0,6.593613781E0
5.607725437E0,7.141435891E-2,-3.955627918E0,4.087462902E0,5.688536298E0
5.612467728E0,-1.170278713E-1,-3.988240719E0,2.861344099E0,4.909893034E0
5.617209968E0,-2.284535468E-1,-3.927048206E0,1.791649938E0,4.322488651E0
5.621952260E0,-2.667610347E-1,-3.812915802E0,9.027406573E-1,3.927394691E0
5.626694551E0,-2.213802636E-1,-3.655551910E0,1.616640389E-1,3.665815633E0
5.631436791E0,-1.154019162E-1,-3.478992462E0,-4.282064438E-1,3.507145123E0
5.636179082E0,1.596862264E-2,-3.297660351E0,-8.826175928E-1,3.413771024E0
5.640921374E0,1.758644432E-1,-3.149870396E0,-1.219568729E0,3.382300947E0
5.645663614E0,3.169941604E-1,-3.033213615E0,-1.462363720E0,3.382214923E0
5.650405905E0,5.414600372E-1,-2.907014847E0,-1.637047768E0,3.379917112E0
5.655148197E0,8.847248554E-1,-2.752154350E0,-1.757888556E0,3.383380530E0
5.659890489E0,1.292755246E0,-2.599728107E0,-1.839154959E0,3.436901704E0
5.664632728E0,1.657578230E0,-2.454473495E0,-1.842350721E0,3.488016902E0
5.669375020E0,1.937708735E0,-2.304369926E0,-1.772060990E0,3.493570674E0
5.674117312E0,2.148954153E0,-2.142182350E0,-1.671331525E0,3.464144662E0
5.678859551E0,2.314490557E0,-1.955896378E0,-1.576045036E0,3.415598796E0
5.683601843E0,2.445697308E0,-1.752646446E0,-1.486121655E0,3.355854952E0
5.688344135E0,2.551609039E0,-1.534767151E0,-1.396810055E0,3.288965981E0
5.693086374E0,2.621896744E0,-1.309402466E0,-1.305497169E0,3.208301764E0
5.697828666E0,2.648431778E0,-1.081309319E0,-1.204748273E0,3.104003725E0
5.702570957E0,2.622802258E0,-8.553056717E-1,-1.084387302E0,2.964209051E0
5.707313249E0,2.507413864E0,-6.553649902E-1,-9.487633705E-1,2.759851353E0
5.712055489E0,2.314978838E0,-4.911403656E-1,-7.901085019E-1,2.494918300E0
5.716797780E0,2.094899416E0,-3.292398453E-1,-6.101888418E-1,2.206656489E0
5.721540072E0,1.878163457E0,-1.457901001E-1,-4.498585463E-1,1.936782238E0
5.726282364E0,1.701219797E0,7.597255707E-2,-3.169213533E-1,1.732154662E0
5.731024603E0,1.545194149E0,3.121290207E-1,-2.022126317E-1,1.589320431E0
5.735766895E0,1.398245096E0,5.148410797E-1,-1.081357002E-1,1.493935747E0
5.740509187E0,1.270061255E0,6.746006012E-1,-1.559698582E-2,1.438188036E0
5.745251426E0,1.189803958E0,7.770967484E-1,9.016716480E-2,1.423953276E0
5.749993718E0,1.186854124E0,8.080844879E-1,1.926090717E-1,1.448696485E0
5.754736010E0,1.206228137E0,8.130388260E-1,3.136792183E-1,1.488090422E0
5.759478301E0,1.212181807E0,8.612957001E-1,4.561008215E-1,1.555391582E0
5.764220541E0,1.253524184E0,9.670591354E-1,6.711784601E-1,1.719594946E0
5.768962832E0,1.352606058E0,1.113328934E0,9.771959782E-1,2.005980170E0
5.773705124E0,1.532132506E0,1.280808449E0,1.305835366E0,2.386023115E0
5.778447416E0,1.800327778E0,1.452795029E0,1.501547813E0,2.757977400E0
5.783189655E0,2.141360760E0,1.584021568E0,1.535057902E0,3.074240231E0
5.787931947E0,2.565437794E0,1.684157372E0,1.514149904E0,3.422061814E0
5.792674239E0,3.046195030E0,1.762515068E0,1.598493576E0,3.865351891E0
5.797416530E0,3.495953083E0,1.808783531E0,1.975750327E0,4.404199720E0
5.802158770E0,3.843788862E0,1.760400772E0,2.403050900E0,4.862959729E0
5.806901062E0,4.024493694E0,1.586641312E0,2.596123219E0,5.045179473E0
5.811643353E0,4.037762165E0,1.326128960E0,2.642128229E0,5.004296444E0
5.816385593E0,3.950179815E0,1.036297798E0,2.713362217E0,4.903077423E0
5.821127885E0,3.859927177E0,7.865457535E-1,2.781009197E0,4.822002094E0
5.825870176E0,3.785976887E0,5.651683807E-1,2.695032597E0,4.681478077E0
5.830612468E0,3.708554268E0,3.199186325E-1,2.419472933E0,4.439546369E0
5.835354760E0,3.619910717E0,4.387950897E-2,2.069919348E0,4.170161282E0
5.840096999E0,3.546396255E0,-2.817573547E-1,1.663851261E0,3.927431047E0
5.844839291E0,3.454105377E0,-5.777864456E-1,1.000958443E0,3.642334270E0
5.849581582E0,3.398732185E0,-7.154159546E-1,6.981937885E-1,3.542693188E0
5.854323874E0,3.440036774E0,-8.220643997E-1,7.340924740E-1,3.612275549E0
5.859066114E0,3.549774408E0,-9.192647934E-1,7.976464033E-1,3.752623868E0
5.863808405E0,3.665137768E0,-1.035311699E0,7.683336735E-1,3.885285293E0
5.868550697E0,3.765728712E0,-1.169979095E0,7.512758970E-1,4.014222128E0
5.873292989E0,3.856741667E0,-1.311257362E0,7.850451469E-1,4.148511545E0
5.878035280E0,3.933646917E0,-1.454376221E0,8.676959276E-1,4.282719286E0
5.882777520E0,3.991832733E0,-1.592160225E0,9.660588503E-1,4.404880527E0
5.887519812E0,4.021781445E0,-1.688720226E0,1.065897942E0,4.490282888E0
5.892262103E0,4.033231258E0,-1.724909782E0,1.157648087E0,4.536784901E0
5.897004395E0,4.031163216E0,-1.683959961E0,1.238745809E0,4.540978881E0
5.901746635E0,3.991993904E0,-1.568247318E0,1.316399813E0,4.486460013E0
5.906488926E0,3.923212767E0,-1.401637077E0,1.411977530E0,4.398848196E0
5.911231218E0,3.820300102E0,-1.203100204E0,1.469761133E0,4.266420134E0
5.915973510E0,3.678501844E0,-9.580850601E-1,1.445616722E0,4.066830524E0
5.920715801E0,3.533874512E0,-6.591653824E-1,1.333443284E0,3.834167323E0
5.925458093E0,3.424838543E0,-2.845296860E-1,1.157945991E0,3.626474197E0
5.930200332E0,3.361350060E0,1.924676895E-1,9.245339632E-1,3.491486944E0
5.934942624E0,3.293259144E0,7.816390991E-1,6.530860662E-1,3.447178104E0
5.939684916E0,3.182030439E0,1.485553741E0,3.585820198E-1,3.529981402E0
5.944427207E0,2.971926689E0,2.268384933E0,8.017432690E-2,3.739564998E0
5.949169499E0,2.606689215E0,3.089214325E0,-6.974709034E-2,4.042640036E0
5.953911739E0,2.036627769E0,3.925526619E0,1.875219345E-1,4.426372825E0
5.958654030E0,9.133317471E-1,4.674646378E0,1.322712421E0,4.943284514E0
5.963396322E0,-5.204141140E-1,5.330071449E0,2.467714787E0,5.896618418E0
5.968138614E0,-2.156784058E0,5.787394524E0,3.791884899E0,7.247347372E0
5.972880905E0,-3.810004950E0,5.966749191E0,5.162362099E0,8.761747318E0
5.977623145E0,-5.221223354E0,5.896773338E0,6.329864502E0,1.010446900E1
5.982365437E0,-6.318074703E0,5.640173912E0,7.047565460E0,1.101806737E1
5.987107728E0,-7.039813995E0,5.214476585E0,7.398376465E0,1.146672235E1
5.991850020E0,-7.250425339E0,4.549381256E0,7.203229904E0,1.118713808E1
5.996592312E0,-7.031805992E0,3.718178749E0,6.644039154E0,1.036409210E1
6.001334603E0,-6.471002579E0,2.803335190E0,5.920295238E0,9.207739042E0
6.006076843E0,-5.696337700E0,1.858328819E0,5.044322014E0,7.832421961E0
6.010819135E0,-4.807538033E0,9.148921967E-1,4.105290413E0,6.387711565E0
6.015561426E0,-3.868506670E0,1.650142670E-2,3.178544044E0,5.006871118E0
6.020303718E0,-2.950639963E0,-8.247175217E-1,2.315917969E0,3.840561316E0
6.025046010E0,-2.104027987E0,-1.587237835E0,1.540781617E0,3.052911021E0
6.029788301E0,-1.369470119E0,-2.261659145E0,8.503372669E-1,2.777341168E0
6.034530541E0,-7.710058689E-1,-2.831438541E0,2.322747707E-1,2.943712933E0
6.039272832E0,-2.804234028E-1,-3.296902180E0,-3.618606925E-1,3.328534877E0
6.044015124E0,1.115233898E-1,-3.658348560E0,-8.941189647E-1,3.767678380E0
6.048757416E0,4.434313774E-1,-3.913446903E0,-1.379266858E0,4.173017507E0
6.053499707E0,7.543439865E-1,-4.050094128E0,-1.837171674E0,4.510819998E0
6.058241999E0,1.020936012E0,-4.075366497E0,-2.285477638E0,4.782711622E0
6.062984239E0,1.159115791E0,-4.011044025E0,-2.725012541E0,4.985751392E0
6.067726530E0,1.146601439E0,-3.874296665E0,-3.151618004E0,5.124213652E0
6.072468822E0,1.020916939E0,-3.658358574E0,-3.558726788E0,5.204843437E0
6.077211114E0,8.124611378E-1,-3.375533581E0,-3.988016129E0,5.287588552E0
6.081953405E0,5.518417358E-1,-3.033206463E0,-4.423938274E0,5.392225941E0
6.086695697E0,2.965364456E-1,-2.652837753E0,-4.862969398E0,5.547427636E0
6.091437989E0,5.850386620E-2,-2.255806923E0,-5.292160511E0,5.753177422E0
6.096180228E0,-1.694943905E-1,-1.861119270E0,-5.664193630E0,5.964527036E0
6.100922520E0,-3.679971695E-1,-1.485351562E0,-5.905982971E0,6.101010247E0
6.105664812E0,-5.460460186E-1,-1.116484642E0,-5.949696064E0,6.078123680E0
6.110407103E0,-6.907708645E-1,-7.545347214E-1,-5.766933918E0,5.856962852E0
6.115149395E0,-8.033676147E-1,-4.162120819E-1,-5.389473915E0,5.464893513E0
6.119891687E0,-8.948283195E-1,-1.158971786E-1,-4.890624046E0,4.973163323E0
6.124633978E0,-9.711854458E-1,1.511116028E-1,-4.269128799E0,4.380810038E0
6.129376218E0,-1.052406311E0,4.132347107E-1,-3.433145046E0,3.614527200E0
6.134118510E0,-1.159390450E0,6.533489227E-1,-2.515733719E0,2.846044127E0
6.138860801E0,-1.310423374E0,8.256435394E-1,-1.830115676E0,2.397544590E0
6.143603093E0,-1.510278702E0,9.249496460E-1,-1.394125104E0,2.253898492E0
6.148345385E0,-1.729892731E0,9.700698853E-1,-1.129249692E0,2.282272838E0
6.153087676E0,-1.920578003E0,9.680061340E-1,-9.783719778E-1,2.362809232E0
6.157829916E0,-2.074028492E0,9.306383133E-1,-9.202901125E-1,2.452471355E0
6.162572207E0,-2.150287628E0,8.580493927E-1,-9.239153266E-1,2.492710407E0
6.167314499E0,-2.144884109E0,7.551927567E-1,-9.647958875E-1,2.470156887E0
6.172056791E0,-2.057649374E0,6.319293976E-1,-1.022769690E0,2.383131039E0
6.176799082E0,-1.895249605E0,4.981794357E-1,-1.084286332E0,2.239605025E0
6.181541374E0,-1.664271355E0,3.686304092E-1,-1.140216231E0,2.050799984E0
6.186283666E0,-1.395220518E0,2.507591248E-1,-1.198055387E0,1.856032635E0
6.191025957E0,-1.128404379E0,1.447067261E-1,-1.248226404E0,1.688877034E0
6.195768197E0,-8.804914951E-1,5.522155762E-2,-1.280815721E0,1.555250335E0
6.200510489E0,-6.658098698E-1,-1.780223846E-2,-1.297636390E0,1.458588325E0
6.205252780E0,-4.770910740E-1,-7.684707642E-2,-1.295483470E0,1.382678121E0
6.209995072E0,-3.115186691E-1,-1.266469955E-1,-1.273529053E0,1.317178648E0
6.214737364E0,-1.568713188E-1,-1.648283005E-1,-1.233271122E0,1.254087174E0
6.219479655E0,-3.197932243E-2,-2.033548355E-1,-1.168990374E0,1.186976984E0
6.224221947E0,8.034920692E-2,-2.374114990E-1,-1.062838078E0,1.091991298E0
6.228964187E0,1.757361889E-1,-2.765655518E-1,-9.160010815E-1,9.728461820E-1
6.233706478E0,2.449202538E-1,-3.207817078E-1,-7.637447119E-1,8.638245306E-1
6.238448770E0,2.882349491E-1,-3.627948761E-1,-6.129003763E-1,7.683400154E-1
6.243191062E0,3.129777908E-1,-4.002132416E-1,-4.679638147E-1,6.907357441E-1
6.247933353E0,3.119723797E-1,-4.378557205E-1,-3.144367933E-1,6.228281422E-1
6.252675645E0,2.729365826E-1,-4.854497910E-1,-1.450301409E-1,5.754907640E-1
6.257417937E0,2.002546787E-1,-5.431718826E-1,2.595329285E-2,5.794921948E-1
6.262160228E0,8.842945099E-2,-6.160974503E-1,1.984452009E-1,6.532812057E-1
6.266902520E0,-3.430151939E-2,-6.756734848E-1,3.602299690E-1,7.664704057E-1
6.271644760E0,-1.391777992E-1,-7.218465805E-1,5.183707476E-1,8.995227499E-1
6.276387051E0,-2.117242813E-1,-7.449245453E-1,6.605973244E-1,1.017904010E0
6.281129343E0,-2.445390224E-1,-7.399768829E-1,7.867392302E-1,1.107395023E0
6.285871635E0,-2.686085701E-1,-7.212867737E-1,9.160031080E-1,1.196439245E0
6.290613926E0,-2.887165546E-1,-6.960077286E-1,1.058029294E0,1.298926478E0
6.295356218E0,-3.169519901E-1,-6.689596176E-1,1.222609282E0,1.429244202E0
6.300098510E0,-3.508687019E-1,-6.329069138E-1,1.395474553E0,1.571950774E0
6.304840801E0,-3.810787201E-1,-5.950737000E-1,1.576888084E0,1.727978510E0
6.309583041E0,-4.150903225E-1,-5.603256226E-1,1.764599681E0,1.897386838E0
6.314325332E0,-4.486777782E-1,-5.240507126E-1,1.939717650E0,2.058748518E0
6.319067624E0,-4.897460938E-1,-5.079889297E-1,2.109545708E0,2.224429608E0
6.323809916E0,-4.903345108E-1,-4.879798889E-1,2.218228102E0,2.323593815E0
6.328552207E0,-4.766745567E-1,-4.662103653E-1,2.281599998E0,2.377029510E0
6.333294499E0,-4.219677448E-1,-4.208259583E-1,2.320274591E0,2.395584573E0
6.338036791E0,-2.869129181E-1,-3.297643661E-1,2.299149513E0,2.340331610E0
6.342779082E0,-1.041042805E-1,-2.260885239E-1,2.213881016E0,2.227829184E0
6.347521322E0,1.058144569E-1,-1.405487061E-1,2.137662172E0,2.144889321E0
6.352263614E0,3.242902756E-1,-7.772731781E-2,2.098615170E0,2.124945022E0
6.357005905E0,5.155797005E-1,-3.523731232E-2,2.079295158E0,2.142552788E0
6.361748197E0,6.530618668E-1,-2.045536041E-2,2.076628447E0,2.176991945E0
6.366490489E0,7.266039848E-1,-3.130435944E-2,2.092364788E0,2.215157719E0
6.371232780E0,7.648358345E-1,-5.833339691E-2,2.116407871E0,2.251123923E0
6.375975072E0,7.870352268E-1,-1.015777588E-1,2.150991917E0,2.292707726E0
6.380717364E0,7.862308025E-1,-1.394968033E-1,2.215625525E0,2.355125198E0
6.385459655E0,7.795696259E-1,-1.648359299E-1,2.318270206E0,2.451382556E0
6.390201895E0,7.698767185E-1,-1.918315887E-1,2.457368851E0,2.582280230E0
6.394944187E0,7.453424931E-1,-2.108821869E-1,2.674793959E0,2.784695576E0
6.399686478E0,7.154181004E-1,-2.172727585E-1,2.909335613E0,3.003874868E0
6.404428770E0,6.895999908E-1,-2.134428024E-1,3.123478174E0,3.205810644E0
6.409171062E0,6.653108597E-1,-2.066373825E-1,3.318046570E0,3.390393869E0
6.413913353E0,6.229963303E-1,-2.065629959E-1,3.522854328E0,3.583475313E0
6.418655645E0,5.547759533E-1,-2.134675980E-1,3.707391500E0,3.754743202E0
6.423397937E0,4.885308743E-1,-2.348117828E-1,3.845530272E0,3.883542462E0
6.428140176E0,4.283354282E-1,-2.684316635E-1,3.949460030E0,3.981678204E0
6.432882468E0,3.952860832E-1,-3.168354034E-1,4.016921997E0,4.048740309E0
6.437624760E0,3.890287876E-1,-3.800992966E-1,4.047927856E0,4.084303956E0
6.442367051E0,4.044499397E-1,-4.559173584E-1,4.034954548E0,4.080722803E0
6.447109343E0,4.245033264E-1,-5.515375137E-1,3.970432281E0,4.030971248E0
6.451851635E0,4.583840370E-1,-6.551103592E-1,3.865705013E0,3.947525903E0
6.456593926E0,4.892148972E-1,-7.690696716E-1,3.731996775E0,3.841692245E0
6.461336218E0,5.651593208E-1,-8.956995010E-1,3.556332350E0,3.710684901E0
6.466078457E0,6.721167564E-1,-1.018149376E0,3.381365776E0,3.594718848E0
6.470820749E0,8.078684807E-1,-1.112442970E0,3.204427242E0,3.486909060E0
6.475563041E0,9.266250134E-1,-1.200242996E0,3.046830416E0,3.403291458E0
6.480305332E0,1.008562803E0,-1.274632931E0,2.900947809E0,3.325264836E0
6.485047624E0,1.057653904E0,-1.335917950E0,2.758910894E0,3.242668326E0
6.489789916E0,1.092453837E0,-1.389095306E0,2.610316277E0,3.152267790E0
6.494532207E0,1.109924197E0,-1.422421932E0,2.458964825E0,3.049872766E0
6.499274447E0,1.172435760E0,-1.404731750E0,2.318383932E0,2.953435450E0
6.504016739E0,1.300122261E0,-1.318939209E0,2.195384502E0,2.872217200E0
6.508759030E0,1.510986924E0,-1.159839630E0,2.104303837E0,2.838380540E0
6.513501322E0,1.780004621E0,-9.652719498E-1,2.047769785E0,2.879848517E0
6.518243614E0,2.111060619E0,-7.586574554E-1,2.016651630E0,3.016458498E0
6.522985905E0,2.489090681E0,-5.418586731E-1,2.006452560E0,3.242689488E0
6.527728197E0,2.899105310E0,-3.287248611E-1,2.005551815E0,3.540495688E0
6.532470489E0,3.318778515E0,-1.331834793E-1,1.997310877E0,3.875729532E0
6.537212728E0,3.735245228E0,4.035758972E-2,1.984270692E0,4.229777278E0
6.541955020E0,4.108993530E0,1.826086044E-1,1.959379673E0,4.555912909E0
6.546697312E0,4.421640396E0,3.104858398E-1,1.917854905E0,4.829645193E0
6.551439603E0,4.615541458E0,4.239177704E-1,1.879299402E0,5.001469331E0
6.556181895E0,4.656376839E0,5.394363403E-1,1.863563299E0,5.044373598E0
6.560924187E0,4.588701248E0,6.950721741E-1,1.839843392E0,4.992427083E0
6.565666478E0,4.440393925E0,9.240665436E-1,1.781750560E0,4.872949029E0
6.570408718E0,4.229651451E0,1.247682571E0,1.669573784E0,4.715309090E0
6.575151010E0,3.989326239E0,1.651412964E0,1.490329742E0,4.567600175E0
6.579893301E0,3.774610043E0,2.123423576E0,1.221240759E0,4.499781956E0
6.584635593E0,3.634118557E0,2.652127266E0,8.657060266E-1,4.581489239E0
6.589377885E0,3.585799217E0,3.216591835E0,4.271487594E-1,4.835997841E0
6.594120176E0,3.591778278E0,3.767109871E0,-6.921571493E-2,5.205456637E0
6.598862468E0,3.547996521E0,4.236938477E0,-5.617246628E-1,5.554769263E0
6.603604707E0,3.447962761E0,4.657323837E0,-1.007506728E0,5.881681931E0
6.608346999E0,3.289915323E0,5.011630058E0,-1.382460833E0,6.152330992E0
6.613089291E0,3.020797968E0,5.294867516E0,-1.664569616E0,6.319148232E0
6.617831582E0,2.693474770E0,5.552288055E0,-1.850247622E0,6.442524757E0
6.622573874E0,2.318247795E0,5.783645630E0,-1.918759584E0,6.519698456E0
6.627316166E0,1.881416321E0,5.990796089E0,-1.860587239E0,6.549133533E0
6.632058457E0,1.377111316E0,6.203910828E0,-1.597487211E0,6.552626231E0
6.636800697E0,8.241845369E-1,6.436241150E0,-1.165917158E0,6.592711363E0
6.641542989E0,2.255647182E-1,6.667605400E0,-6.244058609E-1,6.700576385E0
6.646285280E0,-3.601162434E-1,6.878153801E0,-6.869029999E-2,6.887917085E0
6.651027572E0,-9.240031242E-1,7.048342705E0,4.213364124E-1,7.121126388E0
6.655769864E0,-1.418101549E0,7.185264587E0,8.180720806E-1,7.369415250E0
6.660512155E0,-1.822375059E0,7.317857742E0,1.098235846E0,7.620906427E0
6.665254395E0,-2.162176371E0,7.434366226E0,1.257796049E0,7.843905835E0
6.669996687E0,-2.428823233E0,7.546761513E0,1.375097752E0,8.046346093E0
6.674738978E0,-2.633474588E0,7.623722076E0,1.504639149E0,8.204892789E0
6.679481270E0,-2.754718781E0,7.631761551E0,1.475598335E0,8.246796371E0
6.684223562E0,-2.831181049E0,7.570679665E0,1.314869404E0,8.188996170E0
6.688965853E0,-2.902628899E0,7.432905197E0,1.058813810E0,8.049498176E0
6.693708093E0,-2.946378231E0,7.208606720E0,7.245852947E-1,7.821136706E0
6.698450385E0,-2.944302320E0,6.890789032E0,2.494618893E-1,7.497607677E0
6.703192676E0,-2.976405621E0,6.470162392E0,-3.290882111E-1,7.129536510E0
6.707934968E0,-3.043931007E0,5.933448792E0,-1.501517534E0,6.835633507E0
6.712677260E0,-3.100638390E0,5.267301559E0,-3.112496853E0,6.859013107E0
6.717419551E0,-3.090268135E0,4.517433167E0,-4.467184067E0,7.064891581E0
6.722161791E0,-3.020426035E0,3.731517792E0,-5.472388268E0,7.279713718E0
6.726904082E0,-2.886761904E0,2.938017845E0,-6.144987106E0,7.397716518E0
6.731646374E0,-2.691947699E0,2.141476631E0,-6.513807297E0,7.366287401E0
6.736388666E0,-2.460211039E0,1.358422279E0,-6.617481232E0,7.189506749E0
6.741130957E0,-2.208818674E0,5.932426453E-1,-6.508874893E0,6.899004939E0
6.745873197E0,-1.965067148E0,-1.472082138E-1,-6.258202076E0,6.561116702E0
6.750615489E0,-1.730302572E0,-8.582992554E-1,-5.941189766E0,6.247268238E0
6.755357780E0,-1.496798754E0,-1.528046131E0,-5.615158081E0,6.008771236E0
6.760100072E0,-1.288218260E0,-2.151702881E0,-5.289577007E0,5.853969293E0
6.764842364E0,-1.109262228E0,-2.738959789E0,-4.959442139E0,5.773078013E0
6.769584603E0,-9.649019241E-1,-3.297107220E0,-4.619867802E0,5.757180755E0
6.774326895E0,-8.384190798E-1,-3.814109325E0,-4.290195942E0,5.801392740E0
6.779069187E0,-7.274218798E-1,-4.287477016E0,-3.968242884E0,5.887151547E0
6.783811478E0,-6.222040653E-1,-4.726704597E0,-3.656428576E0,6.008189759E0
6.788553770E0,-5.151728392E-1,-5.126959801E0,-3.344958782E0,6.143278368E0
6.793296010E0,-4.084432125E-1,-5.488184929E0,-3.038467646E0,6.286436614E0
6.798038301E0,-3.260347843E-1,-5.815083504E0,-2.748978376E0,6.440370871E0
6.802780593E0,-2.295181751E-1,-6.100175858E0,-2.496117830E0,6.595106391E0
6.807522885E0,-1.062417030E-1,-6.318962097E0,-2.316793442E0,6.731129262E0
6.812265176E0,6.417942047E-2,-6.456398487E0,-2.212267637E0,6.825198057E0
6.817007468E0,2.832479477E-1,-6.490344048E0,-2.166996241E0,6.848406235E0
6.821749707E0,5.259609818E-1,-6.429887295E0,-2.155863285E0,6.802046169E0
6.826491999E0,7.791547775E-1,-6.286616325E0,-2.160864830E0,6.693128103E0
6.831234291E0,1.029557943E0,-6.055485725E0,-2.168661356E0,6.513984112E0
6.835976582E0,1.239451766E0,-5.750726223E0,-2.165824175E0,6.268802687E0
6.840718822E0,1.382479668E0,-5.389045715E0,-2.148507118E0,5.963987474E0
6.845461114E0,1.450983047E0,-4.994402409E0,-2.117509842E0,5.615447903E0
6.850203405E0,1.458645105E0,-4.581161022E0,-2.080870390E0,5.238769267E0
6.854945697E0,1.433553934E0,-4.151648521E0,-2.053977489E0,4.848720022E0
6.859687989E0,1.375100732E0,-3.722567558E0,-2.028172255E0,4.456668480E0
6.864430228E0,1.272985697E0,-3.305850983E0,-1.997120857E0,4.066649115E0
6.869172520E0,1.128959656E0,-2.896700859E0,-1.939989805E0,3.664558120E0
6.873914812E0,9.474341273E-1,-2.519093513E0,-1.845095754E0,3.263103108E0
6.878657103E0,7.351364493E-1,-2.199568748E0,-1.683197141E0,2.865603059E0
6.883399343E0,4.699878097E-1,-1.969587803E0,-1.429152012E0,2.478435016E0
6.888141635E0,1.344907284E-1,-1.846402168E0,-1.049991488E0,2.128325832E0
6.892883926E0,-2.645603418E-1,-1.816078186E0,-5.678976774E-1,1.921103830E0
6.897626218E0,-7.008005381E-1,-1.852624893E0,-4.580020905E-4,1.980742436E0
6.902368457E0,-1.173909068E0,-1.965699673E0,6.172051430E-1,2.371282331E0
6.907110749E0,-1.655083179E0,-2.136069298E0,1.215692759E0,2.963106690E0
6.911853041E0,-2.084647655E0,-2.291966438E0,1.764068604E0,3.565221457E0
6.916595332E0,-2.360065937E0,-2.381046295E0,2.229793072E0,4.026322122E0
6.921337624E0,-2.496555805E0,-2.422739029E0,2.580055714E0,4.331182607E0
6.926079864E0,-2.526102781E0,-2.460141182E0,2.776376724E0,4.487956953E0
6.930822155E0,-2.475505829E0,-2.485837936E0,2.824927330E0,4.504190690E0
6.935564447E0,-2.330115795E0,-2.458661079E0,2.716767788E0,4.342266820E0
6.940306687E0,-2.159319401E0,-2.423420906E0,2.473181725E0,4.080717707E0
6.945048978E0,-1.965866327E0,-2.389183521E0,2.118329525E0,3.749686426E0
6.949791270E0,-1.721460819E0,-2.307908058E0,1.715771675E0,3.351677102E0
6.954533562E0,-1.450882316E0,-2.196224689E0,1.278826237E0,2.926407170E0
6.959275853E0,-1.217943549E0,-2.099417686E0,7.964639664E-1,2.554465886E0
6.964018093E0,-1.002404094E0,-1.993381977E0,2.986946106E-1,2.251133968E0
6.968760385E0,-7.858463526E-1,-1.882702351E0,-1.816875935E-1,2.048202386E0
6.973502676E0,-5.350543261E-1,-1.724079609E0,-6.379336119E-1,1.914599938E0
6.978244916E0,-2.676361799E-1,-1.526976585E0,-1.062929273E0,1.879655622E0
6.982987207E0,-3.807520866E-2,-1.298660278E0,-1.437102199E0,1.937325726E0
6.987729499E0,1.733834743E-1,-1.046351433E0,-1.738339782E0,2.036354180E0
6.992471791E0,4.206774235E-1,-7.532615662E-1,-1.977759123E0,2.157754302E0
6.997214030E0,6.958164573E-1,-4.359884262E-1,-2.147372723E0,2.299011975E0
7.001956322E0,9.910739064E-1,-1.326398849E-1,-2.224525452E0,2.438920727E0
7.006698614E0,1.301751733E0,1.616659164E-1,-2.171664715E0,2.537089095E0
7.011440853E0,1.643505573E0,4.564304352E-1,-1.950642228E0,2.591224501E0
7.016183145E0,2.008955956E0,7.465257645E-1,-1.522814989E0,2.629100652E0
7.020925437E0,2.396393776E0,1.009954453E0,-9.071257114E-1,2.754194652E0
7.025667728E0,2.821840763E0,1.229582787E0,-1.471829414E-1,3.081610284E0
7.030409968E0,3.299351215E0,1.416881561E0,6.938304901E-1,3.657139941E0
7.035152260E0,3.857507706E0,1.580644608E0,1.578979492E0,4.457799829E0
7.039894551E0,4.481409073E0,1.722189903E0,2.478497505E0,5.402954305E0
7.044636791E0,5.095622540E0,1.828413010E0,3.340787411E0,6.361550418E0
7.049379082E0,5.674256325E0,1.895946503E0,4.108949661E0,7.257772751E0
7.054121374E0,6.202777386E0,1.971848488E0,4.713793755E0,8.036322873E0
7.058863666E0,6.682716370E0,2.072249413E0,5.117064476E0,8.668175388E0
7.063605905E0,7.102843285E0,2.204014778E0,5.285056591E0,9.123589592E0
7.068348197E0,7.436740398E0,2.369733810E0,5.197874546E0,9.377560764E0
7.073090489E0,7.676991463E0,2.586518288E0,4.890731335E0,9.462849875E0
7.077832728E0,7.789314270E0,2.854711533E0,4.466163158E0,9.421751859E0
7.082575020E0,7.770397186E0,3.208280563E0,3.950099468E0,9.288456406E0
7.087317312E0,7.610445976E0,3.678712845E0,3.402236938E0,9.111917051E0
7.092059551E0,7.335428238E0,4.292635918E0,2.877743244E0,8.973106304E0
7.096801843E0,6.948026657E0,5.052795410E0,2.328886986E0,8.901097150E0
7.101544135E0,6.377428055E0,5.978343964E0,1.789724350E0,8.922740520E0
7.106286374E0,5.516511440E0,7.037590027E0,1.369122028E0,9.046218380E0
7.111028666E0,4.291342258E0,8.126317978E0,1.140954018E0,9.260369233E0
7.115770957E0,2.682773352E0,9.075197220E0,1.153398037E0,9.533457110E0
7.120513197E0,7.266966701E-1,9.712412834E0,1.380535603E0,9.836916675E0
7.125255489E0,-1.464012027E0,9.876326561E0,1.692726612E0,1.012672113E1
7.129997780E0,-3.667337418E0,9.471097946E0,1.915808678E0,1.033544304E1
7.134740072E0,-5.720259666E0,8.471496582E0,1.709919930E0,1.036394959E1
7.139482312E0,-7.699695587E0,6.937180519E0,2.073445320E-1,1.036594315E1
7.144224603E0,-9.355809212E0,5.145119667E0,-1.415418386E0,1.077064676E1
7.148966843E0,-1.048449898E1,3.343829155E0,-2.708530188E0,1.133322761E1
7.153709135E0,-1.112624645E1,1.642816544E0,-3.649561405E0,1.182419151E1
7.158451426E0,-1.138755035E1,1.322336197E-1,-4.246553898E0,1.215430001E1
7.163193666E0,-1.129105759E1,-1.102833271E0,-4.569485664E0,1.223047104E1
7.167935957E0,-1.079949856E1,-1.939172745E0,-4.710028172E0,1.194043238E1
7.172678249E0,-9.902956009E0,-2.308908463E0,-4.728941917E0,1.121438753E1
7.177420489E0,-8.834321976E0,-2.290933609E0,-4.652859211E0,1.024415543E1
7.182162780E0,-7.785124302E0,-2.010453224E0,-4.435561180E0,9.182825575E0
7.186905072E0,-6.803935528E0,-1.525278091E0,-4.274267197E0,8.178592299E0
7.191647312E0,-5.964741707E0,-9.312486649E-1,-4.252519131E0,7.384394807E0
7.196389603E0,-5.264307022E0,-2.834968567E-1,-4.338961124E0,6.827875404E0
7.201131843E0,-4.710245609E0,3.339366913E-1,-4.431864262E0,6.476059623E0
7.205874135E0,-4.364483833E0,9.204778671E-1,-4.442770004E0,6.295570184E0
7.210616426E0,-4.252522469E0,1.465928078E0,-4.361785889E0,6.265625955E0
7.215358666E0,-4.334622860E0,1.950638771E0,-4.205265045E0,6.346510935E0
7.220100957E0,-4.596957684E0,2.359821320E0,-3.972652435E0,6.517878794E0
7.224843249E0,-4.946560860E0,2.666815758E0,-3.684873581E0,6.720019638E0
7.229585489E0,-5.302660942E0,2.857042313E0,-3.377532482E0,6.905695440E0
7.234327780E0,-5.610271454E0,2.944842339E0,-3.088912487E0,7.049015714E0
7.239070020E0,-5.647283077E0,2.904294968E0,-2.801928520E0,6.941004167E0
7.243812312E0,-5.493690968E0,2.747500420E0,-2.465172291E0,6.618645891E0
7.248554603E0,-5.254523277E0,2.500732422E0,-2.084908009E0,6.181465758E0
7.253296843E0,-4.842267036E0,2.157245636E0,-1.742560267E0,5.580123213E0
7.258039135E0,-4.344534397E0,1.743632317E0,-1.428294420E0,4.894410867E0
7.262781374E0,-3.830518007E0,1.283867836E0,-1.132117033E0,4.195577886E0
7.267523666E0,-3.326652050E0,7.803287506E-1,-8.609080911E-1,3.523732334E0
7.272265957E0,-2.830888271E0,2.425851822E-1,-6.410593987E-1,2.912684866E0
7.277008197E0,-2.350678444E0,-2.958631516E-1,-4.775382280E-1,2.416871306E0
7.281750489E0,-1.895728111E0,-8.398637772E-1,-3.389880657E-1,2.100968621E0
7.286492728E0,-1.473337650E0,-1.365597725E0,-2.106713057E-1,2.019891922E0
7.291235020E0,-1.100679636E0,-1.866055489E0,-9.476840496E-2,2.168557077E0
7.295977312E0,-7.736003399E-1,-2.336652756E0,-8.023142815E-3,2.461395531E0
7.300719551E0,-5.096452236E-1,-2.789544106E0,3.005897999E-2,2.835876957E0
7.305461843E0,-2.413220406E-1,-3.183938026E0,3.587031364E-2,3.193271733E0
7.310204082E0,7.849574089E-2,-3.540925503E0,2.816998959E-2,3.541907473E0
7.314946374E0,3.082025051E-1,-3.891761780E0,2.369987965E-2,3.904018471E0
7.319688614E0,4.191250801E-1,-4.210951805E0,6.146049500E-2,4.232204902E0
7.324430905E0,4.727113247E-1,-4.491720676E0,1.396242380E-1,4.518684052E0
7.329173197E0,4.969654083E-1,-4.743927956E0,2.413754463E-1,4.775990910E0
7.333915437E0,5.005245209E-1,-4.932056904E0,3.523185253E-1,4.969893202E0
7.338657728E0,4.848163128E-1,-5.068485737E0,4.604964256E-1,5.112401733E0
7.343399968E0,4.876251221E-1,-5.129530907E0,5.536853075E-1,5.182319269E0
7.348142260E0,5.332159996E-1,-5.103229046E0,6.387493610E-1,5.170615703E0
7.352884499E0,6.511960030E-1,-4.977442265E0,7.177089453E-1,5.070906611E0
7.357626791E0,8.351547718E-1,-4.775951862E0,7.783932686E-1,4.910508707E0
7.362369030E0,1.022820950E0,-4.539564610E0,8.641087413E-1,4.732915957E0
7.367111322E0,1.146474838E0,-4.285271168E0,9.313927293E-1,4.532708457E0
7.371853614E0,1.251484275E0,-4.017854214E0,9.794064760E-1,4.320717813E0
7.376595853E0,1.340454102E0,-3.746798992E0,1.024289846E0,4.109074053E0
7.381338145E0,1.451749206E0,-3.443380833E0,1.065753579E0,3.885907617E0
7.386080385E0,1.505615473E0,-3.172380447E0,1.076657891E0,3.672882774E0
7.390822676E0,1.503627896E0,-2.936360836E0,1.080407858E0,3.471367591E0
7.395564916E0,1.488643289E0,-2.704228401E0,1.103015661E0,3.278041128E0
7.400307207E0,1.455699325E0,-2.487927914E0,1.151364088E0,3.103946696E0
7.405049447E0,1.418837070E0,-2.275460720E0,1.191287518E0,2.934277777E0
7.409791739E0,1.389495015E0,-2.059692383E0,1.229809046E0,2.772266112E0
7.414533978E0,1.350202203E0,-1.850315094E0,1.300895929E0,2.634206172E0
7.419276270E0,1.363276958E0,-1.644740105E0,1.366311789E0,2.535843446E0
7.424018510E0,1.494891644E0,-1.435171127E0,1.418929935E0,2.511529285E0
7.428760801E0,1.747095585E0,-1.204236031E0,1.485929489E0,2.590465952E0
7.433503041E0,2.095467091E0,-9.442758560E-1,1.575553656E0,2.786576491E0
7.438245332E0,2.474536419E0,-6.765308380E-1,1.701024055E0,3.078068762E0
7.442987572E0,2.871176958E0,-4.056539536E-1,1.844752789E0,3.436760845E0
7.447729864E0,3.272074699E0,-1.292037964E-1,1.993761301E0,3.833829754E0
7.452472103E0,3.666136503E0,1.360807419E-1,2.113177299E0,4.233744575E0
7.457214395E0,4.056632519E0,3.902368546E-1,2.172569275E0,4.618290750E0
7.461956635E0,4.432280540E0,6.045827866E-1,2.184221268E0,4.978097396E0
7.466698926E0,4.786574364E0,7.719783783E-1,2.143659353E0,5.301181017E0
7.471441166E0,5.117544174E0,8.900566101E-1,2.048486710E0,5.583704590E0
7.476183457E0,5.423298359E0,9.541206360E-1,1.898464322E0,5.824661197E0
7.480925697E0,5.685377598E0,9.667139053E-1,1.695515513E0,6.011058730E0
7.485667989E0,5.902406693E0,9.304618835E-1,1.455821753E0,6.150087890E0
7.490410228E0,6.051498890E0,8.504247665E-1,1.211997986E0,6.229991992E0
7.495152468E0,6.114232540E0,7.364301682E-1,9.581823349E-1,6.232518138E0
7.499894760E0,6.114955902E0,6.173858643E-1,7.029844522E-1,6.186116563E0
7.504636999E0,6.046656609E0,5.053462982E-1,4.746799469E-1,6.086275715E0
7.509379291E0,5.902855396E0,4.145097733E-1,3.445850611E-1,5.927415883E0
7.514121530E0,5.801288605E0,4.783220291E-1,9.009627104E-1,5.890286516E0
7.518863822E0,5.621206760E0,6.388044357E-1,1.849895239E0,5.952154983E0
7.523606062E0,5.258479118E0,7.736024857E-1,2.799036503E0,6.007051589E0
7.528348353E0,4.687612534E0,8.347473145E-1,3.542069435E0,5.934371932E0
7.533090593E0,3.922132015E0,7.910337448E-1,3.992779732E0,5.652534292E0
7.537832885E0,2.960296392E0,6.230850220E-1,4.135181427E0,5.123603723E0
7.542575124E0,1.872908473E0,3.306016922E-1,4.012420654E0,4.440338178E0
7.547317364E0,7.413483858E-1,-5.337047577E-2,3.706111670E0,3.779908669E0
7.552059655E0,-3.878672123E-1,-5.006980896E-1,3.298183441E0,3.358445111E0
7.556801895E0,-1.476354361E0,-9.759826660E-1,2.839772701E0,3.346113172E0
7.561544187E0,-2.438740015E0,-1.431674004E0,2.358768940E0,3.682517376E0
7.566286426E0,-3.241501093E0,-1.834464550E0,1.905182123E0,4.183576035E0
7.571028718E0,-3.853024721E0,-2.184455395E0,1.510945678E0,4.679807872E0
7.575770957E0,-4.306069374E0,-2.484065056E0,1.209047794E0,5.116112706E0
7.580513197E0,-4.594581604E0,-2.721185207E0,1.033513784E0,5.439042176E0
7.585255489E0,-4.716730118E0,-2.869186401E0,9.761636853E-1,5.606484563E0
7.589997728E0,-4.675424099E0,-2.910996437E0,1.038986683E0,5.604728726E0
7.594740020E0,-4.487985611E0,-2.843952179E0,1.222301960E0,5.451981376E0
7.599482260E0,-4.205793381E0,-2.701440811E0,1.519527316E0,5.224504157E0
7.604224499E0,-3.888202906E0,-2.512213230E0,1.882829666E0,4.997437814E0
7.608966791E0,-3.551970959E0,-2.309814453E0,2.232148170E0,4.788969195E0
7.613709030E0,-3.184844971E0,-2.113245487E0,2.522335291E0,4.579434386E0
7.618451322E0,-2.771644115E0,-1.907825470E0,2.721876383E0,4.327865544E0
7.623193562E0,-2.286844015E0,-1.690643311E0,2.827490330E0,4.010315688E0
7.627935801E0,-1.730923891E0,-1.453981400E0,2.862133980E0,3.647186634E0
7.632678093E0,-1.152166843E0,-1.194978714E0,2.872919321E0,3.318000601E0
7.637420332E0,-5.750932693E-1,-9.133157730E-1,2.926613092E0,3.119285521E0
7.642162624E0,4.614472389E-3,-5.847997665E-1,3.020822763E0,3.076911151E0
7.646904864E0,5.790202618E-1,-2.260427475E-1,3.160665274E0,3.221205482E0
7.651647103E0,1.123125315E0,1.366996765E-1,3.346667290E0,3.532743866E0
7.656389395E0,1.611287355E0,4.651298523E-1,3.538558722E0,3.915863959E0
7.661131635E0,2.014789343E0,7.113599777E-1,3.667061806E0,4.244143188E0
7.665873874E0,2.345252514E0,8.634748459E-1,3.652580261E0,4.425736179E0
7.670616166E0,2.633478880E0,9.288539886E-1,3.433774948E0,4.425922631E0
7.675358405E0,2.910631657E0,9.484443665E-1,3.011668682E0,4.294353456E0
7.680100645E0,3.113544941E0,9.366445541E-1,2.483574867E0,4.091406756E0
7.684842937E0,3.209083319E0,9.028224945E-1,1.901810527E0,3.837992637E0
7.689585176E0,3.189848185E0,8.847980499E-1,1.365214229E0,3.580755356E0
7.694327416E0,3.047639370E0,9.032564163E-1,9.619897604E-1,3.321054378E0
7.699069707E0,2.802864313E0,9.933567047E-1,5.991053581E-1,3.033435862E0
7.703811947E0,2.568309784E0,1.188540459E0,4.415321350E-2,2.830334446E0
7.708554187E0,2.435278416E0,1.496321678E0,-5.777556300E-1,2.916052313E0
7.713296478E0,2.490227222E0,1.917394638E0,-1.183693528E0,3.358387141E0
7.718038718E0,2.611938000E0,2.370787621E0,-1.740606666E0,3.933518224E0
7.722780957E0,2.647631884E0,2.803730011E0,-2.231727123E0,4.455498010E0
7.727523249E0,2.627047062E0,3.242418289E0,-2.603615284E0,4.918685310E0
7.732265489E0,2.566403389E0,3.710858345E0,-2.925272465E0,5.377184673E0
7.737007728E0,2.479934692E0,4.199421883E0,-3.121104240E0,5.790208278E0
7.741750020E0,2.380260706E0,4.731939316E0,-3.191624880E0,6.184121610E0
7.746492260E0,2.241960526E0,5.310598373E0,-3.137175322E0,6.562827979E0
7.751234499E0,2.112823725E0,5.956696510E0,-2.957636356E0,6.978099327E0
7.755976791E0,2.026570320E0,6.641199112E0,-2.622936726E0,7.422419415E0
7.760719030E0,1.966429472E0,7.400696754E0,-1.630497694E0,7.829155769E0
7.765461270E0,1.843607664E0,8.164477348E0,-4.439680576E-1,8.381806919E0
7.770203562E0,1.755177259E0,8.820302963E0,4.107415676E-1,9.002616298E0
7.774945801E0,1.749514580E0,9.278079987E0,7.720084190E-1,9.473096986E0
7.779688041E0,1.775195241E0,9.514742851E0,7.224209309E-1,9.705850899E0
7.784430280E0,1.763709068E0,9.557235718E0,4.076519012E-1,9.727158080E0
7.789172572E0,1.709372640E0,9.429918289E0,-4.743266106E-2,9.583713457E0
7.793914812E0,1.570821047E0,9.166556358E0,-5.678446293E-1,9.317493319E0
7.798657051E0,1.330589056E0,8.786295891E0,-1.085350633E0,8.952510749E0
7.803399291E0,9.690029025E-1,8.303404808E0,-1.572332978E0,8.506334641E0
7.808141582E0,5.223456621E-1,7.725049019E0,-2.022647858E0,8.002520334E0
7.812883822E0,2.509224415E-2,7.051250458E0,-2.468277931E0,7.470820476E0
7.817626062E0,-5.143713951E-1,6.283882141E0,-2.726606607E0,6.869216570E0
7.822368301E0,-1.116023779E0,5.458091736E0,-2.808172464E0,6.238758455E0
7.827110593E0,-1.642843723E0,4.655123711E0,-2.813144684E0,5.681803875E0
7.831852832E0,-2.127622843E0,3.863324165E0,-2.864311695E0,5.258928984E0
7.836595072E0,-2.726255655E0,3.027381897E0,-2.848780155E0,4.971223131E0
7.841337312E0,-3.330924034E0,2.168796539E0,-2.807156801E0,4.866093162E0
7.846079603E0,-3.955923080E0,1.287535667E0,-2.708277464E0,4.964055029E0
7.850821843E0,-4.636228561E0,3.786277771E-1,-2.636301517E0,5.346780336E0
7.855564082E0,-5.266881943E0,-5.316123962E-1,-2.584147215E0,5.890710820E0
