"Time (s)","Linear Acceleration x (m/s^2)","Linear Acceleration y (m/s^2)","Linear Acceleration z (m/s^2)","Absolute acceleration (m/s^2)"
3.007583333E-3,-3.329308113E-1,2.881233054E-1,-1.075352075E0,1.161998300E0
1.299658333E-2,-2.230825330E-1,1.005802953E-1,-1.042542763E0,1.070877036E0
2.298458333E-2,-3.119241044E-1,1.965711111E-1,-6.423289186E-1,7.406235807E-1
3.297258333E-2,-3.223758562E-1,5.313581210E-1,-3.366826773E-1,7.068400601E-1
4.296058333E-2,-2.050036731E-1,6.429066235E-1,-5.105449569E-1,8.461746779E-1
5.294958333E-2,-8.612407789E-2,5.832392961E-1,-9.968029189E-1,1.158102540E0
6.293758333E-2,-1.171787864E-1,3.193795967E-1,-1.332780422E0,1.375513667E0
7.292558333E-2,-3.945310821E-1,2.867679209E-1,-1.330377801E0,1.416967081E0
8.291358333E-2,-5.559606463E-1,4.375986028E-1,-1.063484566E0,1.277334803E0
9.290258333E-2,-6.661119566E-1,5.045620859E-1,-6.859193265E-1,1.081098219E0
1.028905833E-1,-4.162576544E-1,2.551958799E-1,-3.117156512E-1,5.792771523E-1
1.128785833E-1,-3.051354505E-1,-1.945836425E-2,-5.135843396E-2,3.100386425E-1
1.228665833E-1,-8.734984432E-1,-1.379831797E-1,5.018934166E-1,1.016826381E0
1.328555833E-1,-1.106383687E0,-2.123182476E-1,7.278099489E-1,1.341220050E0
1.428435833E-1,-1.002334750E0,-4.348404711E-1,6.094769222E-1,1.251088848E0
1.528315833E-1,-1.239323936E0,-6.177390379E-1,6.009089971E-1,1.509508847E0
1.628195833E-1,-1.393394998E0,-2.707927430E-1,3.098363560E-1,1.452885714E0
1.728085833E-1,-1.287601910E0,6.974383414E-2,-9.353790879E-3,1.289523313E0
1.827965833E-1,-8.979126882E-1,-1.231780297E-1,-1.081805062E-1,9.127557420E-1
1.927845833E-1,-3.646756375E-1,-8.447910994E-1,-1.166098523E-1,9.275010404E-1
2.027735833E-1,-1.201950726E-1,-1.710440387E0,1.529631615E-2,1.714726552E0
2.127615833E-1,-2.006263013E-1,-2.043170346E0,1.316699409E-1,2.057214852E0
2.227495833E-1,-4.359265915E-1,-1.531755323E0,5.627313566E-1,1.689074582E0
2.327375833E-1,-6.386954588E-1,-6.500536752E-1,1.103128104E0,1.430871512E0
2.427265833E-1,-7.531558746E-1,4.288347960E-2,1.004987851E0,1.256615831E0
2.527145833E-1,-5.809492341E-1,3.962991339E-1,1.228074331E0,1.415175459E0
2.627025833E-1,-1.159342065E-1,3.912629271E-1,1.222791957E0,1.289087890E0
2.726905833E-1,9.538855255E-3,1.978645152E-1,7.695327562E-1,7.946206762E-1
2.826785833E-1,-3.790913630E-1,9.404895544E-2,8.104626811E-1,8.996695087E-1
2.926675833E-1,-5.662671679E-1,-1.005954981E-1,8.905642730E-1,1.060133333E0
3.026555833E-1,-4.418290633E-1,-4.007821941E-1,1.106779690E0,1.257298918E0
3.126435833E-1,-2.902353197E-2,-5.526682985E-1,1.060386127E0,1.196120124E0
3.226315833E-1,6.103484496E-1,-3.616824478E-1,6.214420795E-1,9.431488118E-1
3.326205833E-1,8.123232651E-1,-5.070003748E-2,6.674596667E-2,8.166361521E-1
3.426085833E-1,1.334315024E0,1.577719116E-1,-6.271355134E-1,1.482763471E0
3.525965833E-1,1.793546863E0,4.737694788E-1,-2.024200809E0,2.745661447E0
3.625855833E-1,1.703909631E0,7.736579669E-1,-2.863070433E0,3.420384041E0
3.725735833E-1,1.089391825E0,7.820381963E-1,-2.909062293E0,3.203279836E0
3.825615833E-1,5.718307936E-1,7.255809903E-1,-2.176327819E0,2.364288689E0
3.925495833E-1,6.258193052E-1,4.925378716E-1,-1.087654032E0,1.348048460E0
4.025385833E-1,9.098489749E-1,-1.836592895E-1,-2.215720510E-1,9.542798676E-1
4.125265833E-1,9.997124934E-1,-9.067119437E-1,3.028167737E-1,1.383202667E0
4.225145833E-1,1.181594814E0,-9.236139053E-1,7.338542157E-1,1.669661930E0
4.325025833E-1,-4.484609753E-1,-7.033574778E-1,6.906555712E-1,1.082974656E0
4.424915833E-1,-1.730723793E0,-1.031549998E0,-1.645234576E0,2.601210691E0
4.524795833E-1,-1.308244336E0,-1.696007704E0,-1.038329844E0,2.380351705E0
4.624675833E-1,-4.366531080E-1,-2.108724650E0,-9.705226082E-1,2.362054131E0
4.724555833E-1,1.078282700E0,-1.410133823E0,-1.200883609E0,2.143196776E0
4.824445833E-1,1.128817846E0,-8.280037433E-1,-8.377446198E-1,1.631452106E0
4.924325833E-1,-9.789116085E-2,-1.322989844E0,6.245726788E-1,1.466279591E0
5.024205833E-1,-7.391523778E-2,-1.578873357E0,4.002448350E-1,1.630490867E0
5.124085833E-1,1.501293084E0,-4.306977189E-1,-1.142409698E0,1.935066244E0
5.223975833E-1,2.555944846E0,9.082392365E-1,-2.003844897E0,3.372409664E0
5.323855833E-1,3.037447852E0,1.328828289E0,-1.717694442E0,3.733945403E0
5.423735833E-1,2.293310139E0,1.040761701E0,-6.489985451E-1,2.600702871E0
5.523615833E-1,2.631638807E-1,4.214760751E-1,-8.794048619E-1,1.010074364E0
5.623505833E-1,-6.028783393E-1,3.063829905E-1,-1.199024779E0,1.376587538E0
5.723385833E-1,-5.017694557E-1,4.950393105E-1,-5.549042737E-1,8.970815228E-1
5.823265833E-1,3.401775581E-1,1.389408367E0,3.864179242E-1,1.481720349E0
5.923145833E-1,7.804150093E-1,2.686987966E0,9.594479817E-1,2.957954081E0
6.023035833E-1,6.917016381E-1,3.508125324E0,1.776303131E0,3.992574014E0
6.122915833E-1,4.634099668E-1,3.215478027E0,3.760797253E0,4.969672396E0
6.222795833E-1,7.366275501E-1,3.049064516E0,4.541275412E0,5.519293156E0
6.322675833E-1,1.567649626E0,3.714389949E0,3.615911728E0,5.415628834E0
6.422565833E-1,2.276990560E0,4.024139181E0,3.107766176E0,5.571049521E0
6.522445833E-1,2.351269494E0,3.891189870E0,3.343759799E0,5.643629721E0
6.622325833E-1,1.796677462E0,3.453648570E0,2.874814566E0,4.839452152E0
6.722205833E-1,1.336985155E0,2.913276381E0,2.527622688E0,4.082105465E0
6.822085833E-1,1.009598381E0,2.221549600E0,1.693121372E0,2.970055807E0
6.921975833E-1,1.300145942E0,1.589314730E0,9.929068460E-1,2.280825461E0
7.021855833E-1,1.694552332E0,7.881114069E-1,7.090865797E-1,1.998857417E0
7.121735833E-1,1.321494126E0,-4.162746844E-1,7.019711030E-1,1.553188581E0
7.221615833E-1,7.320292997E-1,-1.345609213E0,9.044544069E-1,1.778923502E0
7.321505833E-1,-2.429518104E-2,-1.365136867E0,3.427988648E-1,1.407728661E0
7.421385833E-1,-3.296420449E-1,-1.199942500E0,-1.261302888E-1,1.250773653E0
7.521265833E-1,-3.217442107E-1,-1.128019116E0,-2.581045774E-1,1.201068040E0
7.621155833E-1,-6.248387271E-1,-1.119917214E0,-6.568399537E-1,1.440859718E0
7.721035833E-1,-8.007001698E-1,-1.467533892E0,-9.893746161E-1,1.942585550E0
7.820918333E-1,-1.179702070E0,-2.198949088E0,-1.183287291E0,2.761746346E0
7.920798333E-1,-1.300969230E0,-2.650662138E0,-5.305555907E-1,3.000003324E0
8.020678333E-1,-1.255557414E0,-2.589797301E0,-3.681553155E-1,2.901553518E0
8.120568333E-1,-1.876945699E0,-1.984084086E0,-7.427995786E-1,2.830417996E0
8.220448333E-1,-2.433559114E0,-1.310632046E0,-9.500298715E-1,2.922759497E0
8.320328333E-1,-2.553122395E0,-1.021582103E0,-8.736494476E-1,2.885364330E0
8.420218333E-1,-2.177402537E0,-1.146080069E0,-3.595166391E-1,2.486731498E0
8.520098333E-1,-1.766093016E0,-1.407212846E0,-8.917272842E-1,2.427861216E0
8.619978333E-1,-2.152840723E0,-1.425639615E0,-1.417799522E0,2.945730296E0
8.719858333E-1,-2.723927166E0,-1.446466374E0,-1.554747160E0,3.453879400E0
8.819748333E-1,-2.161316847E0,-1.538671410E0,-9.000297457E-1,2.801580583E0
8.919628333E-1,-1.148761529E0,-1.398114286E0,-5.543645757E-1,1.892537104E0
9.019508333E-1,-8.805591023E-1,-9.950741165E-1,-1.034495240E0,1.683964736E0
9.119388333E-1,-8.213367480E-1,-8.513396155E-1,-8.960197252E-1,1.483989401E0
9.219268333E-1,-7.355534166E-1,-8.235806170E-1,-7.197776288E-1,1.318106102E0
9.319158333E-1,-9.238600731E-1,-6.664343575E-1,-8.227441728E-1,1.405190436E0
9.419038333E-1,-1.061025227E0,-5.491681552E-1,-6.329540777E-1,1.352032196E0
9.518918333E-1,-1.135652071E0,-7.257447854E-1,-6.195715553E-1,1.483334093E0
9.618798333E-1,-1.410780525E0,-7.941571355E-1,-7.208155096E-1,1.772163154E0
9.718688333E-1,-1.400545558E0,-7.933141863E-1,-7.317860556E-1,1.768158955E0
9.818568333E-1,-1.015043308E0,-8.586115783E-1,-5.559608656E-1,1.441047967E0
9.918448333E-1,-1.328531250E0,-4.655750081E-1,-6.856117630E-1,1.565828490E0
1.001832833E0,-2.199321409E0,1.762073786E-1,-7.928988147E-1,2.344515351E0
1.011821833E0,-2.802186300E0,3.815795725E-1,-1.046449873E0,3.015444970E0
1.021809833E0,-3.213369521E0,5.458894752E-1,-1.492557344E0,3.584894200E0
1.031797833E0,-3.478091685E0,7.336522675E-1,-1.478964322E0,3.850026349E0
1.041785833E0,-3.584615090E0,1.033392529E0,-1.626051031E0,4.069570914E0
1.051774833E0,-3.994117237E0,1.217806036E0,-1.545964642E0,4.452643116E0
1.061762833E0,-3.927516282E0,1.011187362E0,-3.970733052E-1,4.074990949E0
1.071750833E0,-2.958167794E0,8.252021230E-1,4.166632318E-1,3.099245633E0
1.081738833E0,-2.137788236E0,1.277075168E0,2.216813940E-1,2.500040433E0
1.091727833E0,-2.450505515E0,1.489049161E0,-1.356893170E-1,2.870654328E0
1.101715833E0,-3.072128273E0,1.415003822E0,-1.935153562E-1,3.387868967E0
1.111703833E0,-3.556099389E0,1.634298821E0,-7.584306479E-1,3.986476207E0
1.121691833E0,-3.670006074E0,1.785915954E0,-1.347528854E0,4.298171051E0
1.131680833E0,-2.962094200E0,1.637115571E0,-5.703268898E-1,3.432116286E0
1.141668833E0,-1.765158631E0,1.495756940E0,-1.775413477E-1,2.320472957E0
1.151656833E0,-1.179630734E0,1.514798398E0,-7.931093144E-1,2.077297581E0
1.161644833E0,-2.149753978E0,1.147911782E0,-1.034489101E0,2.647510401E0
1.171633833E0,-3.096760254E0,6.673975401E-1,-7.285045981E-1,3.250548030E0
1.181621833E0,-3.029182228E0,2.472189987E-1,8.413687241E-1,3.153563625E0
1.191609833E0,-1.801505508E0,-7.960873014E-1,2.039817553E0,2.835495148E0
1.201597833E0,-2.892219973E-1,-1.260790088E0,1.869579377E0,2.273448494E0
1.211586833E0,1.742587209E-2,-1.681250501E0,2.307396081E0,2.854992747E0
1.221574833E0,1.215619177E0,-1.799505614E0,2.373302095E0,3.216910517E0
1.231562833E0,1.832395179E0,-2.144894649E-1,-3.927954823E-2,1.845324011E0
1.241550833E0,1.327517343E0,1.585622944E0,-1.932820523E0,2.830600217E0
1.251539833E0,1.259290277E0,1.769801758E0,-1.683888473E0,2.748361449E0
1.261527833E0,1.401277045E0,1.731553220E0,-1.783189397E0,2.853352123E0
1.271515833E0,4.346662241E-1,2.255731984E0,-3.209585788E0,3.946986501E0
1.281503833E0,1.814139587E-1,3.034601428E0,-3.520717010E0,4.651576627E0
1.291492833E0,1.747165579E-1,3.577946341E0,-2.447725456E0,4.338615655E0
1.301480833E0,6.279155320E-1,3.290270640E0,-1.930747100E0,3.866256997E0
1.311468833E0,1.180332985E0,2.680453702E0,-1.335018736E0,3.218740908E0
1.321456833E0,9.865691221E-1,1.722127801E0,-5.095357275E-1,2.049065507E0
1.331445833E0,5.970860875E-1,1.526184681E0,1.242660795E0,2.056686006E0
1.341433833E0,1.174943022E0,1.326658826E0,2.836994190E0,3.345003853E0
1.351421833E0,2.751419020E-1,1.013416174E0,2.692708297E0,2.890223759E0
1.361409833E0,-7.932391226E-2,2.348504200E-1,3.148665987E0,3.158408539E0
1.371398833E0,8.626929349E-1,-4.081935400E-1,2.739646236E0,2.901124362E0
1.381386833E0,7.622360158E-1,-6.112613462E-2,1.669972976E0,1.836722595E0
1.391374833E0,-4.604138535E-1,5.024885170E-2,1.030244315E0,1.129561513E0
1.401362833E0,2.954048431E-1,5.625321127E-1,1.222206650E0,1.377496096E0
1.411351833E0,1.347840511E0,6.092136513E-1,2.015059857E0,2.499656285E0
1.421339833E0,1.183413883E0,-3.052156670E-1,1.664386547E0,2.064898932E0
1.431327833E0,8.404051030E-1,-7.472078676E-1,1.425785649E0,1.815892357E0
1.441315833E0,5.575863916E-1,-7.667116208E-1,1.455261464E0,1.736817555E0
1.451304833E0,1.464136952E-1,2.298506851E-1,1.557077860E0,1.580746586E0
1.461292833E0,2.635445344E-1,1.152011777E0,1.168179036E0,1.661694651E0
1.471280833E0,4.307456660E-1,1.385375981E0,9.213493518E-1,1.718631160E0
1.481268833E0,7.016810811E-1,1.535797065E0,7.484460155E-1,1.846943530E0
1.491257833E0,1.213191998E0,1.914690646E0,1.583642346E-1,2.272213530E0
1.501245833E0,1.223483098E0,2.368913468E0,-5.526723915E-1,2.722886094E0
1.511233833E0,1.209889491E0,2.367550189E0,-5.132517061E-1,2.707868865E0
1.521221833E0,3.498623013E-1,2.063961729E0,-9.816539526E-2,2.095704677E0
1.531210833E0,-4.421342880E-1,1.544653989E0,1.796234681E-1,1.616695167E0
1.541198833E0,-5.039744407E-1,1.139192853E0,2.392663103E-1,1.268463228E0
1.551186833E0,-2.328027982E-1,8.849601553E-1,3.952671003E-1,9.967886937E-1
1.561174833E0,1.814461184E-1,6.203252614E-1,7.568611821E-1,9.952713061E-1
1.571162833E0,-1.369698572E-1,8.361637520E-1,6.872804853E-1,1.091001846E0
1.581151833E0,-7.439587891E-2,1.048284217E0,3.949014301E-1,1.122667220E0
1.591139833E0,-1.370634127E-1,1.179791167E0,3.664682476E-1,1.242977294E0
1.601127833E0,-4.231156343E-1,1.148645461E0,6.859840845E-1,1.403206115E0
1.611115833E0,-8.934036809E-1,1.200487826E0,2.715558046E-1,1.520882544E0
1.621104833E0,-1.494567617E0,1.164295461E0,-9.450313792E-2,1.896904617E0
1.631092833E0,-2.210827560E0,1.265031950E0,2.297341794E-1,2.557507015E0
1.641080833E0,-2.069955271E0,1.369846214E0,-4.359643060E-1,2.520170302E0
1.651068833E0,-1.517527878E0,1.025157968E0,-7.530564719E-1,1.980134786E0
1.661057833E0,-1.433678806E0,6.514530601E-1,-2.764170335E-1,1.598822187E0
1.671045833E0,-1.138326003E0,-1.041894892E-1,-8.443043187E-2,1.146198079E0
1.681033833E0,-9.473641258E-1,-1.088208202E0,7.471104383E-2,1.444741367E0
1.691021833E0,-9.115838438E-1,-1.633996667E0,2.701355159E-1,1.890477032E0
1.701010833E0,6.058826387E-2,-1.464134321E0,3.152324590E-1,1.498910188E0
1.710998833E0,1.113824415E0,-1.139980473E0,-4.910901010E-2,1.594544449E0
1.720986833E0,1.369434278E0,-1.252251837E0,-5.936268747E-1,1.948301253E0
1.730974833E0,1.218401867E0,-1.573623580E0,-8.302264161E-1,2.156402139E0
1.740963833E0,6.801650816E-1,-1.371679170E0,-1.110051207E0,1.891121880E0
1.750951833E0,5.032540637E-1,-9.246200649E-1,-1.685848313E0,1.987528981E0
1.760939833E0,6.961010832E-1,-7.050848915E-1,-1.934825533E0,2.173764308E0
1.770927833E0,5.222598535E-1,-8.755424836E-1,-1.834972193E0,2.099155293E0
1.780916833E0,1.722654051E-1,-1.497200472E0,-1.595832182E0,2.194986327E0
1.790904583E0,-9.109377265E-3,-1.725051117E0,-1.677794358E0,2.406424369E0
1.800892583E0,-2.058857256E-1,-1.740269957E0,-1.336850961E0,2.204109559E0
1.810880583E0,-3.539892662E-1,-1.433842966E0,-7.579634553E-1,1.660036943E0
1.820869583E0,-2.432470948E-1,-9.749044385E-1,-9.152145262E-1,1.359126720E0
1.830857583E0,-1.653943419E-2,-8.832488946E-1,-1.283739240E0,1.558328784E0
1.840845583E0,-3.559258640E-2,-7.777714100E-1,-1.620153091E0,1.797523640E0
1.850833583E0,2.473623651E-1,-6.678740881E-1,-1.702702035E0,1.845653856E0
1.860822583E0,3.355717063E-1,-4.671966237E-1,-1.437191228E0,1.548030905E0
1.870810583E0,7.214651352E-1,-5.066241065E-1,-5.192944381E-1,1.023155237E0
1.880798583E0,1.639393793E0,-1.070304320E0,-7.617694080E-2,1.959328015E0
1.890786583E0,2.174654346E0,-1.715621312E0,-1.024344474E-1,2.771817242E0
1.900775583E0,2.444013936E0,-1.829147927E0,5.324573976E-1,3.098789625E0
1.910763583E0,1.878800436E0,-1.197722239E0,7.024064282E-1,2.336194433E0
1.920751583E0,1.607063368E0,-8.371392868E-2,6.960844186E-1,1.753338019E0
1.930739583E0,1.702785797E0,9.471388619E-1,2.353054065E-1,1.962630920E0
1.940727583E0,1.193100380E0,1.230620501E0,-2.212820292E-1,1.728259550E0
1.950716583E0,3.051895738E-2,1.312107591E0,-4.187468871E-1,1.377645344E0
1.960704583E0,-8.617345762E-1,1.682596823E0,-4.564102650E-1,1.944743911E0
1.970692583E0,-1.299112739E0,1.645465541E0,-4.150904770E-1,2.137182926E0
1.980680583E0,-8.605008137E-1,1.399920345E0,-4.524091615E-1,1.704380436E0
1.990669583E0,-2.392902839E-1,1.110355335E0,-7.448484430E-1,1.358288634E0
2.000657583E0,-4.611698985E-3,6.437894800E-1,-8.610909440E-1,1.075157559E0
2.010645583E0,-1.067894536E-1,3.634407055E-1,-4.257961442E-1,5.699083174E-1
2.020633583E0,4.537269777E-1,-7.422601730E-2,-1.556601897E-2,4.600217091E-1
2.030622583E0,8.921582240E-1,-1.575889669E-1,-7.969301775E-2,9.094677323E-1
2.040610583E0,1.046869703E0,-1.632335034E-1,1.772377311E-1,1.074241390E0
2.050598583E0,1.234944225E0,-8.572710311E-1,4.116219087E-1,1.558663997E0
2.060586583E0,1.315272104E0,-1.598256584E0,5.522840633E-1,2.142284412E0
2.070575583E0,1.447867075E0,-1.849887417E0,4.882658958E-1,2.399334513E0
2.080563583E0,1.326168975E0,-2.146958570E0,4.991867405E-1,2.572419611E0
2.090551583E0,1.292221795E0,-2.370572907E0,8.349180758E-1,2.826046934E0
2.100539583E0,2.263309245E0,-3.011408447E0,1.000648633E0,3.897748999E0
2.110528583E0,2.375491585E0,-3.709266034E0,1.504659326E0,4.654633656E0
2.120516583E0,2.618859133E0,-4.321168089E0,2.803213656E0,5.778314945E0
2.130504583E0,2.751604376E0,-4.331383467E0,3.874105475E0,6.429689154E0
2.140492583E0,8.094516975E-1,-1.239607087E0,3.651443503E0,3.940162108E0
2.150481583E0,-1.575520563E-1,3.627955822E0,1.452976810E0,3.911269322E0
2.160469583E0,-2.627177382E-1,6.051000473E0,-7.499849296E-1,6.102958687E0
2.170457583E0,-9.778240263E-2,4.965628025E0,-1.659605717E0,5.236536471E0
2.180445583E0,-3.493845838E-1,3.069419551E0,-9.226640251E-1,3.224083570E0
2.190434583E0,-1.107931007E0,1.550769299E0,-5.801285774E-2,1.906767429E0
2.200422583E0,-1.881551551E0,-1.697891092E-1,-3.036973643E-1,1.913451507E0
2.210410583E0,-2.572055680E0,-1.245791102E0,-7.248176363E-1,2.948359967E0
2.220398583E0,-2.668608997E0,-2.174877124E0,-7.817461279E-1,3.530253744E0
2.230386583E0,-1.678128088E0,-2.955216705E0,-5.562640437E-1,3.443668006E0
2.240375583E0,2.005343539E-1,-4.416280945E0,-8.060186510E-1,4.493708655E0
2.250363583E0,9.867047775E-1,-6.915993118E0,-3.875246851E0,7.988872592E0
2.260351583E0,-2.749021661E-1,-5.886053444E0,6.034012266E-1,5.923283665E0
2.270339583E0,-6.202141643E-2,-5.354755549E0,2.532243158E0,5.923639848E0
2.280328583E0,3.957360470E-1,-4.450781271E0,1.205167133E0,4.628011318E0
2.290316583E0,2.978612584E-1,-1.576187730E0,1.955374549E0,2.529145848E0
2.300304583E0,7.174983841E-1,-2.698139191E-1,-1.223597703E0,1.443881858E0
2.310292583E0,1.325419362E0,2.268779315E0,-6.816448950E0,7.305345464E0
2.320281583E0,2.329251219E0,2.118771921E0,-1.921165853E0,3.688561227E0
2.330269583E0,-1.024197709E0,3.096474325E0,6.941623219E0,7.669632788E0
2.340257583E0,-2.357187461E0,2.306334227E0,6.300284234E0,7.111194816E0
2.350245583E0,-1.493478280E0,-5.323831379E-2,3.792763104E0,4.076562725E0
2.360234583E0,-3.637085080E-1,-2.242568001E0,4.033624535E0,4.629419187E0
2.370222583E0,2.395925850E-1,-2.896974344E0,2.345942681E0,3.735413232E0
2.380210583E0,7.519840926E-1,-1.564887986E0,1.103083080E0,2.056975150E0
2.390198583E0,5.126318282E-1,7.905353701E-1,-3.789741263E-2,9.429601140E-1
2.400187583E0,-5.097655231E-1,2.655113624E0,-1.360881409E0,3.026794914E0
2.410175583E0,-6.856714046E-1,2.709727787E0,-2.165297485E0,3.535715367E0
2.420163583E0,1.931452274E-2,1.658911214E0,-2.107304361E0,2.681993874E0
2.430151583E0,-5.376134723E-1,4.037239283E-1,-1.884394467E0,2.000740804E0
2.440140583E0,-9.643643206E-1,-7.849360764E-1,-2.003402848E0,2.357911397E0
2.450128583E0,-1.148936360E0,-1.875444719E0,-2.207080665E0,3.115855054E0
2.460116583E0,-7.008958000E-1,-3.018726822E0,-2.251224804E0,3.830402024E0
2.470104583E0,2.219912964E-1,-4.259315364E0,-1.968887903E0,4.697612913E0
2.480092583E0,-8.141429186E-2,-4.221400849E0,-1.406491884E0,4.450289073E0
2.490081583E0,-4.280021524E-1,-4.392060608E0,-7.850163294E-1,4.482146011E0
2.500069583E0,-7.798454905E-1,-4.608871272E0,1.923750030E-1,4.678339612E0
2.510057583E0,-1.758699796E0,-4.006770027E0,8.215459321E-1,4.452209423E0
2.520045583E0,-1.576325140E0,-2.888246205E0,5.247583687E-1,3.331987160E0
2.530034583E0,-1.200994999E0,-2.498997644E0,1.488081300E-1,2.776602613E0
2.540022583E0,-1.271050489E0,-7.933104587E-1,-3.202110708E-2,1.498644782E0
2.550010583E0,-2.258577678E-1,4.766527408E-1,-1.278981945E-1,5.427407436E-1
2.559998583E0,9.064675301E-2,-4.355836523E-1,-3.912830999E-1,5.924967648E-1
2.569987583E0,-2.834908488E-1,-2.470635724E-1,-1.225843034E0,1.282224089E0
2.579975583E0,-5.609046865E-1,-1.538688952E-1,-1.641057033E0,1.741079519E0
2.589963583E0,-3.872786343E-1,-3.512422442E-1,-1.604975912E0,1.687988013E0
2.599951583E0,-8.619672954E-2,-1.949467546E-1,-1.606308492E0,1.620389177E0
2.609940583E0,5.574206230E-1,-1.098128150E0,-1.663480813E0,2.069727421E0
2.619928583E0,1.415241073E0,-3.930789553E0,-1.994859481E0,4.629630455E0
2.629916583E0,3.724733089E0,-1.081908558E1,-4.617160285E-1,1.145161260E1
2.639904583E0,-1.565620935E0,-1.058829013E1,2.429135111E0,1.097559812E1
2.649892583E0,-4.171413587E0,-6.373167438E0,2.126064276E0,7.908103680E0
2.659881583E0,-2.977789004E0,-5.856754800E0,1.754843557E0,6.800608800E0
2.669869583E0,4.635631639E-1,-7.299852886E0,8.668397802E-1,7.365741929E0
2.679857583E0,1.352529685E0,-6.207600603E0,-2.434114015E-1,6.357899882E0
2.689845583E0,1.162882555E-1,4.578460488E0,2.694610396E-1,4.587857087E0
2.699834583E0,-1.388819260E0,2.107137248E1,2.168594145E0,2.122815012E1
2.709822583E0,-1.753327374E0,2.180981735E1,1.759952270E0,2.195084785E1
2.719810583E0,-1.926446765E0,1.197031697E1,3.235862298E-1,1.212866001E1
2.729798583E0,-1.874948729E0,4.134267395E0,-9.261148325E-1,4.633064678E0
2.739787583E0,-1.270522924E0,2.893453735E-1,-1.249095072E0,1.805045081E0
2.749775583E0,-7.520375946E-1,-1.083646935E0,-1.378699191E0,1.908052065E0
2.759763583E0,-1.290601824E-1,-6.684186101E-1,-1.329158657E0,1.493352840E0
2.769751583E0,8.628693746E-1,8.114344883E-1,-9.730450970E-1,1.532901252E0
2.779740583E0,2.153667958E0,2.070927079E0,-3.374784833E-1,3.006811661E0
2.789728208E0,2.478422754E0,3.256143658E0,-2.054588423E-1,4.097226404E0
2.799716208E0,1.613394733E0,3.584898096E0,-4.038601685E-1,3.951915986E0
2.809704208E0,4.030270133E-1,3.875928637E0,-1.377329189E0,4.133072618E0
2.819692208E0,-2.785926363E-1,3.194639136E0,-2.652135052E0,4.161388398E0
2.829681208E0,-7.664739315E-1,2.297950489E0,-3.343374175E0,4.128705562E0
2.839669208E0,-1.430276603E0,1.832014525E0,-3.469417341E0,4.175981928E0
2.849657208E0,-1.707458014E0,1.295804384E0,-3.281546887E0,3.919575467E0
2.859645208E0,-1.935174612E0,8.355501598E-1,-2.621124344E0,3.363530537E0
2.869634208E0,-1.926068451E0,7.970392281E-1,-1.908728825E0,2.826350462E0
2.879622208E0,-1.835877926E0,1.415475839E0,-1.365275738E0,2.690352663E0
2.889610208E0,-1.803454092E0,2.126879670E0,-1.020957840E0,2.969582244E0
2.899598208E0,-1.630986081E0,2.610577136E0,-6.621177967E-1,3.148591520E0
2.909587208E0,-1.392690263E0,2.611493980E0,-4.600470869E-1,2.995184518E0
2.919575208E0,-9.296343447E-1,2.341931491E0,-1.948761494E-1,2.527219784E0
2.929563208E0,-8.109371826E-2,1.662028365E0,3.921584281E-1,1.709591386E0
2.939551208E0,6.856300355E-1,8.087886232E-1,1.069193641E0,1.505789702E0
2.949539208E0,1.006199979E0,4.395240909E-1,1.460929170E0,1.827548594E0
2.959528208E0,1.313519401E0,3.659824902E-1,2.376300255E0,2.739722486E0
2.969516208E0,1.240966126E0,3.010503298E-1,2.848313230E0,3.121460633E0
2.979504208E0,9.092275621E-1,7.002110910E-1,3.084367665E0,3.290944276E0
2.989492208E0,6.492650320E-1,1.382372997E0,3.527310623E0,3.843750826E0
2.999481208E0,7.506332396E-1,1.685790280E0,3.897536438E0,4.312322971E0
3.009469208E0,9.411366950E-1,1.966626785E0,3.917618115E0,4.483424013E0
3.019457208E0,8.937451583E-1,1.993911062E0,4.491982507E0,4.995234587E0
3.029445208E0,1.148514630E0,1.287985488E0,4.931331766E0,5.224559834E0
3.039434208E0,1.489941738E0,-6.246288121E-2,4.325816333E0,4.575643664E0
3.049422208E0,1.618627699E0,-1.458770378E0,3.458960180E0,4.088076830E0
3.059410208E0,1.458432701E0,-2.266448030E0,3.027757262E0,4.053532614E0
3.069398208E0,9.490087283E-1,-2.655716472E0,2.671370637E0,3.884542267E0
3.079387208E0,3.964947964E-1,-2.930825045E0,2.204222546E0,3.688568909E0
3.089375208E0,-6.712018847E-2,-3.099628898E0,1.706801080E0,3.539120562E0
3.099363208E0,-4.019293448E-1,-3.104276265E0,1.267689217E0,3.377145878E0
3.109351208E0,-4.685013568E-1,-3.137470908E0,1.022599665E0,3.333005745E0
3.119339208E0,-3.434629624E-1,-3.228280506E0,8.698306310E-1,3.361006867E0
3.129328208E0,-5.795199553E-1,-3.301981151E0,7.391032612E-1,3.432957403E0
3.139316208E0,-9.871113051E-1,-3.047317953E0,5.771483246E-1,3.254786571E0
3.149304208E0,-8.975123732E-1,-3.243342934E0,4.121959591E-1,3.390384544E0
3.159292208E0,-9.698618728E-1,-3.555408248E0,2.838636088E-1,3.696233003E0
3.169281208E0,-1.278612547E0,-3.671843269E0,1.684850340E-1,3.891743856E0
3.179269208E0,-1.536264988E0,-3.458773654E0,1.198325452E-1,3.786500382E0
3.189257208E0,-1.649287866E0,-2.954337283E0,1.803842640E-1,3.388332589E0
3.199245208E0,-1.528961816E0,-2.190137773E0,2.061387639E-1,2.678977583E0
3.209234208E0,-1.210038010E0,-1.451847859E0,-1.894965649E-2,1.890082877E0
3.219222208E0,-5.893369187E-1,-1.555915434E0,-2.914661586E-1,1.689125029E0
3.229210208E0,-1.941394003E-1,-1.718387922E0,-4.912758963E-1,1.797748359E0
3.239198208E0,-1.027462502E-1,-1.659040437E0,-6.092386481E-1,1.770351291E0
3.249186208E0,-3.575288782E-1,-1.572947788E0,-7.137238602E-1,1.763914225E0
3.259175208E0,-7.842078057E-1,-1.490386273E0,-9.357264125E-1,1.926607652E0
3.269163208E0,-1.318597562E0,-1.387547783E0,-1.435437502E0,2.392586300E0
3.279151208E0,-1.730034406E0,-1.424180589E0,-1.987330460E0,2.995128003E0
3.289139208E0,-2.031011061E0,-1.668848557E0,-2.478602848E0,3.612967411E0
3.299128208E0,-2.173203944E0,-1.756463236E0,-2.948742960E0,4.062396279E0
3.309116208E0,-2.321732869E0,-1.214464352E0,-2.852512116E0,3.873266393E0
3.319104208E0,-2.122315918E0,-5.812541664E-2,-2.204119635E0,3.060350762E0
3.329092208E0,-1.731118919E0,1.259511302E0,-1.439722196E0,2.579911128E0
3.339081208E0,-1.213100562E0,2.113370848E0,-5.551662290E-1,2.499231653E0
3.349069208E0,-7.715783315E-1,2.720526425E0,2.604007789E-1,2.839789731E0
3.359057208E0,-7.028938667E-1,3.360354490E0,7.142944023E-1,3.506602141E0
3.369045208E0,-1.189824332E0,3.772907129E0,9.785183832E-1,4.075292428E0
3.379033208E0,-1.580712891E0,3.686978787E0,1.209219400E0,4.189830232E0
3.389022208E0,-1.890164938E0,2.847316865E0,8.962042049E-1,3.533145737E0
3.399010208E0,-2.236642287E0,2.163876173E0,1.506266141E-1,3.115704926E0
3.408998208E0,-2.574679033E0,2.083949997E0,-5.804013500E-1,3.362838896E0
3.418986208E0,-2.821560172E0,2.110875841E0,-1.278191694E0,3.748436024E0
3.428975208E0,-2.797985953E0,2.142228026E0,-1.728217384E0,3.924869633E0
3.438963208E0,-2.363902111E0,2.014326031E0,-1.903874759E0,3.642839778E0
3.448951208E0,-1.852442650E0,2.401823936E0,-2.026805159E0,3.648046209E0
3.458939208E0,-1.438248405E0,2.572026443E0,-1.913608034E0,3.513655391E0
3.468928208E0,-1.099887577E0,2.378820990E0,-1.610707937E0,3.076186282E0
3.478916208E0,-8.289892915E-1,2.059776438E0,-1.322304843E0,2.584258563E0
3.488904208E0,-5.166527391E-1,1.422593070E0,-8.523407319E-1,1.737004841E0
3.498892208E0,2.770286523E-2,4.294493383E-1,-5.983134180E-2,4.344812682E-1
3.508880208E0,5.118341949E-1,-2.944149095E-1,6.769499901E-1,8.982848496E-1
3.518869208E0,8.064444745E-1,-4.326413333E-1,9.612462929E-1,1.327224792E0
3.528857208E0,1.245183138E0,4.149944365E-2,7.373909041E-1,1.447739133E0
3.538845208E0,1.522100109E0,6.808690864E-1,3.102778208E-1,1.696067151E0
3.548833208E0,1.666333669E0,1.142966938E0,2.421916723E-1,2.035116244E0
3.558822208E0,1.913725855E0,1.042935112E0,3.891938898E-1,2.213940419E0
3.568810208E0,2.303260784E0,1.083518296E0,4.918949702E-1,2.592485834E0
3.578798208E0,2.794247535E0,1.739147292E0,5.094488963E-1,3.330464047E0
3.588786208E0,3.424050256E0,2.875981670E0,5.075640464E-1,4.500334653E0
3.598775208E0,3.781992825E0,3.188397233E0,-8.907648325E-2,4.947451997E0
3.608763208E0,3.768062418E0,2.284178542E0,-9.552499732E-1,4.508688114E0
3.618751208E0,3.652344851E0,8.212203884E-1,-1.848386436E0,4.174992007E0
3.628739208E0,3.742693104E0,-5.280357331E-1,-2.295413674E0,4.422159805E0
3.638727208E0,4.091237735E0,-1.706958954E0,-2.118169365E0,4.913102537E0
3.648716208E0,3.659959680E0,-2.531061435E0,-8.709699610E-1,4.534331872E0
3.658704208E0,2.778014495E0,-2.037223728E0,4.729657790E-1,3.477260658E0
3.668692208E0,2.077052914E0,-9.054413438E-1,1.181923135E0,2.555565521E0
3.678680208E0,1.395190824E0,-9.843506885E-1,1.426096429E0,2.224692055E0
3.688669208E0,6.528679401E-1,-1.781896870E0,1.426960355E0,2.374364938E0
3.698657208E0,-8.966624804E-2,-2.812400801E0,1.358471041E0,3.124593073E0
3.708645208E0,-6.162401041E-1,-3.796840952E0,1.309309991E0,4.063255558E0
3.718633208E0,-9.840817896E-1,-4.366591306E0,1.364680784E0,4.679518164E0
3.728622208E0,-1.144402429E0,-4.136011620E0,1.303006400E0,4.484871761E0
3.738610208E0,-1.509866564E0,-3.605161622E0,8.998733327E-1,4.010817794E0
3.748598208E0,-1.846825961E0,-3.407437440E0,3.757183966E-1,3.893913243E0
3.758586208E0,-1.967222762E0,-3.280134199E0,-2.576721758E-2,3.824906497E0
3.768574208E0,-1.787489147E0,-3.197375633E0,-1.206932554E-1,3.665091438E0
3.778563208E0,-1.027919023E0,-3.187369292E0,-2.674045739E-1,3.359679409E0
3.788550875E0,-3.398294295E-1,-3.376549523E0,-6.578635088E-1,3.456783927E0
3.798538875E0,1.254907496E-1,-3.573423520E0,-8.501126504E-1,3.675295240E0
3.808526875E0,2.471849387E-1,-3.846941065E0,-2.157213271E-1,3.860905547E0
3.818515875E0,2.486933741E-1,-3.551164339E0,2.228005511E-1,3.566827252E0
3.828503875E0,1.356517486E-1,-3.207733975E0,4.978912899E-1,3.248977437E0
3.838491875E0,4.401692580E-2,-2.962471930E0,5.766024140E-1,3.018384960E0
3.848479875E0,-3.800438013E-1,-3.076291491E0,2.293801305E-1,3.108153450E0
3.858468875E0,-9.370500029E-1,-2.898546075E0,-3.173517823E-1,3.062734760E0
3.868456875E0,-1.148840174E0,-1.940870969E0,-1.056946210E0,2.490772803E0
3.878444875E0,-1.353356043E0,-1.357714119E0,-1.628258940E0,2.515191321E0
3.888432875E0,-1.420467022E0,-7.944524199E-1,-2.013691316E0,2.589176302E0
3.898420875E0,-9.602430569E-1,-1.172203016E-1,-2.077248504E0,2.291455580E0
3.908409875E0,-4.367529492E-1,3.838749701E-1,-1.960583980E0,2.044994541E0
3.918397875E0,-5.611726351E-2,1.165255939E0,-1.964822334E0,2.285059596E0
3.928385875E0,3.899767589E-1,1.802534033E0,-1.955531985E0,2.687994821E0
3.938373875E0,7.370224565E-1,1.993466674E0,-2.048794783E0,2.952062253E0
3.948362875E0,7.404198349E-1,1.875238897E0,-2.478846092E0,3.195218365E0
3.958350875E0,2.507725344E-1,1.499208552E0,-2.943316451E0,3.312646205E0
3.968338875E0,-6.628003129E-1,1.311494218E0,-3.239848638E0,3.557518873E0
3.978326875E0,-1.715257030E0,1.465747860E0,-3.531090263E0,4.190360595E0
3.988315875E0,-2.466575418E0,2.000459359E0,-3.912850295E0,5.039467171E0
3.998303875E0,-2.649495619E0,2.611875218E0,-4.079945008E0,5.521564131E0
4.008291875E0,-2.444829330E0,2.827639815E0,-3.720874511E0,5.274243500E0
4.018279875E0,-2.140026550E0,2.834388671E0,-2.867423393E0,4.564601810E0
4.028268875E0,-1.580109750E0,3.429489044E0,-1.960154209E0,4.254450194E0
4.038256875E0,-5.668028460E-1,4.271233744E0,-1.137592470E0,4.456323573E0
4.048244875E0,3.093328377E-1,4.518721824E0,-2.846602920E-1,4.538233711E0
4.058232875E0,1.013090704E0,3.726980174E0,-9.046373516E-2,3.863278100E0
4.068220875E0,1.354730870E0,2.906994717E0,-4.713118941E-1,3.241612086E0
4.078209875E0,1.799079644E0,2.087433184E0,-5.930819142E-1,2.818831499E0
4.088197875E0,2.322224912E0,7.582926536E-1,-3.517889589E-2,2.443148347E0
4.098185875E0,2.632132897E0,1.440426493E-1,4.741463318E-1,2.678373875E0
4.108173875E0,2.264025236E0,2.759096414E-1,2.665535116E-1,2.296298581E0
4.118162875E0,1.688751894E0,9.218369365E-1,-6.669363409E-2,1.925127097E0
4.128150875E0,1.539390325E0,1.341726077E0,1.056545091E-1,2.044777327E0
4.138138875E0,1.774350454E0,1.698181699E0,6.559558547E-1,2.542128773E0
4.148126875E0,2.110787402E0,2.083210909E0,1.356184195E0,3.261046875E0
4.158115875E0,2.237433269E0,2.410247435E0,2.011230515E0,3.854925228E0
4.168103875E0,2.245242956E0,2.287118522E0,2.615031838E0,4.136474172E0
4.178091875E0,2.359722668E0,2.076989472E0,3.214003360E0,4.495775120E0
4.188079875E0,2.373869860E0,1.890553924E0,3.496977607E0,4.630151686E0
4.198067875E0,2.211156759E0,1.889162287E0,3.304074454E0,4.401710617E0
4.208056875E0,1.835996040E0,2.271323438E0,2.709808771E0,3.984075200E0
4.218044875E0,1.174913420E0,2.412610295E0,2.083332239E0,3.397261132E0
4.228032875E0,5.341689507E-1,1.929981700E0,1.636040122E0,2.585883429E0
4.238020875E0,9.234383427E-2,1.074110126E0,1.574124540E0,1.907906711E0
4.248009875E0,-2.444565913E-1,5.007736748E-1,1.971413023E0,2.048658734E0
4.257997875E0,-3.473452212E-1,1.177658468E-1,2.474341982E0,2.501376769E0
4.267985875E0,-3.960678765E-1,-6.008733290E-1,2.804110911E0,2.894988173E0
4.277973875E0,-3.132184587E-1,-1.712068251E0,2.900405197E0,3.382548419E0
4.287962875E0,-3.203082807E-1,-2.661995797E0,2.712908673E0,3.814274830E0
4.297950875E0,-3.238177796E-1,-3.047874607E0,1.991516335E0,3.655206546E0
4.307938875E0,-8.766299196E-2,-3.187486821E0,1.201206668E0,3.407441048E0
4.317926875E0,8.934903659E-2,-3.322749876E0,9.529596189E-1,3.457858011E0
4.327914875E0,1.164763165E-1,-3.555974259E0,1.043914228E0,3.707866850E0
4.337903875E0,8.891751207E-2,-3.748433023E0,1.087383306E0,3.903979880E0
4.347891875E0,5.332733765E-3,-3.771489179E0,7.995120156E-1,3.855305245E0
4.357879875E0,-3.684320350E-1,-3.805447469E0,9.354208955E-1,3.936011287E0
4.367867875E0,-7.984419751E-1,-3.844011610E0,1.245994878E0,4.119033634E0
4.377856875E0,-6.199781560E-1,-3.755007632E0,4.046811175E-1,3.827299575E0
4.387844875E0,-6.955202354E-1,-3.587089632E0,-4.442889869E-1,3.680808760E0
4.397832875E0,-7.257789917E-1,-3.387538195E0,-8.183654854E-1,3.559760138E0
4.407820875E0,-6.826224471E-1,-3.072017176E0,-6.302748835E-1,3.209440662E0
4.417809875E0,-5.495779719E-1,-2.505104476E0,-3.395975143E-2,2.564904997E0
4.427797875E0,-4.804998433E-1,-2.258261343E0,3.887495014E-1,2.341313855E0
4.437785875E0,-5.007203190E-1,-2.716016468E0,6.489681396E-1,2.837010035E0
4.447773875E0,-4.158798511E-1,-3.134722132E0,8.602224863E-1,3.277105678E0
4.457761875E0,-3.165980031E-1,-3.054327010E0,1.148050507E0,3.278287319E0
4.467750875E0,-5.621535055E-2,-2.891154610E0,1.387118012E0,3.207184361E0
4.477738875E0,-7.065446489E-2,-2.566080410E0,1.278010430E0,2.867589821E0
4.487726875E0,-3.300946925E-1,-1.968147061E0,9.960185149E-1,2.230385223E0
4.497714875E0,-4.146180951E-1,-1.252790512E0,8.992073348E-1,1.596861316E0
4.507703875E0,-5.125174420E-1,-3.818459862E-1,8.819425535E-1,1.089175447E0
4.517691875E0,-5.837957317E-1,6.080431849E-1,8.641380742E-1,1.207173800E0
4.527679875E0,-5.192787602E-1,1.472708970E0,4.328363380E-1,1.620453467E0
4.537667875E0,-5.491016431E-1,2.145270333E0,-2.418396699E-1,2.227595978E0
4.547656875E0,-5.718770963E-1,2.451409494E0,-7.099282864E-1,2.615425414E0
4.557644875E0,-6.637146713E-1,2.626247090E0,-9.755354261E-1,2.879124920E0
4.567632875E0,-6.554631536E-1,2.700873349E0,-1.034337658E0,2.965502180E0
4.577620875E0,-4.162999005E-1,2.529927660E0,-9.547611460E-1,2.735947444E0
4.587608875E0,-2.558977651E-1,2.458014509E0,-1.009167149E0,2.669407673E0
4.597597875E0,-3.246046686E-1,3.150364019E0,-1.499645046E0,3.504154235E0
4.607585875E0,-3.861610121E-1,4.242086543E0,-1.999169756E0,4.705432847E0
4.617573875E0,-5.377100976E-1,4.897526674E0,-2.421305982E0,5.489774342E0
4.627561875E0,-9.800863872E-1,4.651266509E0,-2.684740296E0,5.459183082E0
4.637550875E0,-1.284795247E0,3.788105212E0,-2.375859960E0,4.652434897E0
4.647538875E0,-1.119981460E0,3.074483532E0,-1.932156864E0,3.800004948E0
4.657526875E0,-2.787019792E-1,2.252236957E0,-1.401443691E0,2.667262740E0
4.667514875E0,9.496856166E-1,2.004387519E0,-6.465134785E-1,2.310292573E0
4.677503875E0,1.922329302E0,2.243277268E0,-1.308367127E-1,2.957154222E0
4.687491875E0,2.334654046E0,2.296344844E0,-7.076943576E-2,3.275487364E0
4.697479875E0,2.936706174E0,2.346787603E0,4.805601427E-1,3.789801216E0
4.707467875E0,3.739946959E0,2.690885135E0,8.216557136E-1,4.680083779E0
4.717455875E0,3.943131271E0,2.967487671E0,8.207081723E-1,5.002782146E0
4.727444875E0,3.557476116E0,3.251698020E0,6.214838871E-1,4.859569791E0
4.737432875E0,2.882361567E0,3.299530583E0,2.907963601E-1,4.390839646E0
4.747420875E0,2.277262309E0,3.747973432E0,-6.318969011E-2,4.386025696E0
4.757408875E0,1.948587394E0,3.680819330E0,-4.351094431E-1,4.187450775E0
4.767397875E0,1.568243119E0,2.852553046E0,-7.967331263E-1,3.351302588E0
4.777385875E0,1.660648714E0,3.283346660E0,-5.401570112E-1,3.718855877E0
4.787374625E0,2.357376473E0,3.817542434E0,6.363057017E-2,4.487193212E0
4.797362625E0,2.723604107E0,3.297663567E0,2.305533743E-1,4.283194975E0
4.807351625E0,2.596324548E0,2.214762737E0,1.149395952E-1,3.414569702E0
4.817339625E0,2.532219184E0,1.099061950E0,3.791904733E-1,2.786369785E0
4.827327625E0,2.328999935E0,7.975619692E-1,6.648108780E-1,2.549964567E0
4.837315625E0,1.926985002E0,3.440606940E-1,6.703272875E-1,2.069054767E0
4.847303625E0,1.495296764E0,-3.537887067E-1,8.227209301E-1,1.742971196E0
4.857292625E0,9.297295082E-1,-1.534765470E-1,7.086647031E-1,1.179049477E0
4.867280625E0,-2.949984616E-1,-4.142781526E-1,3.783616304E-2,5.099824068E-1
4.877268625E0,-1.481985724E0,-1.588159904E0,-8.860458371E-1,2.345977578E0
4.887256625E0,-1.242495319E0,-3.344488655E0,-8.985682341E-1,3.679242293E0
4.897245625E0,9.842515782E-2,-3.395040173E0,-4.582799122E-2,3.396775749E0
4.907233625E0,1.034070002E0,-2.119799861E0,1.073718363E0,2.591471270E0
4.917221625E0,1.657272532E0,-2.984566804E0,1.702996881E0,3.815021576E0
4.927209625E0,1.681471234E0,-4.523568581E0,1.955411825E0,5.207077263E0
4.937197625E0,1.146578325E0,-5.745147825E0,8.950391471E-1,5.926420544E0
4.947186625E0,5.964271063E-1,-5.608349876E0,-8.638249558E-1,5.705743351E0
4.957174625E0,5.696689318E-1,-5.276985242E0,-2.759351352E0,5.982066183E0
4.967162625E0,-2.499670073E-2,-5.100737883E0,-6.493092661E0,8.257021503E0
4.977150625E0,-1.110288604E0,-4.032992451E0,-5.202187074E0,6.675366600E0
4.987139625E0,-8.594715576E-1,-1.732497253E0,5.860213647E-1,2.020806555E0
4.997127625E0,-2.071421461E-1,2.291111585E0,4.029343203E0,4.639795989E0
5.007115625E0,8.736647965E-1,2.965107270E0,3.382308446E0,4.582047765E0
5.017103625E0,1.313336530E0,-3.706199169E-2,-2.024913987E-1,1.329371730E0
5.027092625E0,1.110400870E0,-1.922946914E0,-2.458807392E0,3.313072398E0
5.037080625E0,6.977679782E-1,-2.840752780E0,-2.979315419E0,4.175293628E0
5.047068625E0,1.802766752E-1,-3.646003253E0,-2.225105876E0,4.275153280E0
5.057056625E0,5.470345062E-1,-3.723138553E0,-1.277752275E0,3.974123590E0
5.067044625E0,1.220074756E0,-3.490967839E0,-5.796748334E-1,3.743188717E0
5.077033625E0,1.631924706E0,-2.937768028E0,-1.968547010E-1,3.366364657E0
5.087021625E0,1.859789823E0,-2.800145037E0,-2.447089169E-1,3.370387643E0
5.097009625E0,1.898349725E0,-3.034903729E0,-2.980483693E-1,3.592103166E0
5.106997625E0,1.534457760E0,-3.079983423E0,-1.856882733E-1,3.446061322E0
5.116986625E0,9.847690567E-1,-2.783134902E0,3.117676000E-2,2.952385810E0
5.126974625E0,5.812203987E-1,-2.795104737E0,1.732231790E-1,2.860145785E0
5.136962625E0,2.060493015E-1,-2.889313322E0,2.776942116E-1,2.909931590E0
5.146950625E0,-3.896058261E-2,-3.078591785E0,4.594414616E-1,3.112929772E0
5.156939625E0,-9.801146731E-2,-3.374445695E0,9.179719269E-1,3.498451436E0
5.166927625E0,1.074124745E-1,-3.790914799E0,1.688116887E0,4.151181889E0
5.176915625E0,4.508280744E-1,-4.168205220E0,2.442310642E0,4.852016280E0
5.186903625E0,9.718212748E-1,-4.350673431E0,2.923903695E0,5.331229569E0
5.196891625E0,9.306133148E-1,-2.193063135E0,3.306101099E0,4.075030249E0
5.206880625E0,6.087482129E-1,1.154337434E0,3.351871934E0,3.596959099E0
5.216868625E0,2.774383959E-1,5.562565593E0,2.705867456E0,6.191996990E0
5.226856625E0,2.969259232E-1,8.886961461E0,2.057557420E0,9.126871947E0
5.236844625E0,4.026847319E-1,1.054953479E1,1.788857980E0,1.070770060E1
5.246833625E0,6.112069671E-1,1.143827999E1,2.281174096E0,1.167953673E1
5.256821625E0,7.211377642E-1,1.102969293E1,3.385986929E0,1.156023673E1
5.266809625E0,-4.543038055E-1,9.439107018E0,4.434084547E0,1.043859373E1
5.276797625E0,-2.134448014E0,6.258177849E0,4.969367319E0,8.271352360E0
5.286785625E0,-3.106465755E0,3.800810627E0,5.350543799E0,7.261171383E0
5.296774625E0,-3.326705518E0,2.547460536E0,5.444652981E0,6.870281717E0
5.306762625E0,-3.230783114E0,2.070224828E0,5.150560253E0,6.422776759E0
5.316750625E0,-2.891327980E0,1.432558479E0,4.541148820E0,5.570819858E0
5.326738625E0,-2.433336774E0,3.821377623E-1,3.546916337E0,4.318306685E0
5.336727625E0,-1.741820493E0,-2.668476266E-1,2.748010093E0,3.264461021E0
5.346715625E0,-1.011361463E0,-8.689436084E-1,2.231323221E0,2.599368831E0
5.356703625E0,-4.404004423E-1,-1.570936931E0,1.983964802E0,2.568640054E0
5.366691625E0,-2.310454175E-1,-2.969514901E0,1.943410415E0,3.556437090E0
5.376679625E0,7.822068885E-2,-2.046806145E0,1.963308344E0,2.837272198E0
5.386668625E0,5.079626072E-1,-1.342009082E0,2.129531967E0,2.567863078E0
5.396656625E0,5.708575977E-1,-1.692099425E0,2.292619436E0,2.906059659E0
5.406644625E0,4.467644788E-1,-2.413140053E0,2.234572957E0,3.319060065E0
5.416632625E0,3.133832771E-1,-3.031780146E0,2.110000074E0,3.707020400E0
5.426621625E0,1.573942546E-1,-3.449495292E0,2.054139576E0,4.017870098E0
5.436609625E0,-1.275803983E-2,-3.553516674E0,1.973418911E0,4.064729476E0
5.446597625E0,-3.871975042E-1,-3.148216336E0,2.023476924E0,3.762399084E0
5.456585625E0,-6.420627241E-1,-2.508019313E0,2.068600910E0,3.313836921E0
5.466574625E0,-8.103919297E-1,-1.935158240E0,1.873165182E0,2.812529163E0
5.476562625E0,-9.637043893E-1,-1.614025063E0,1.828270991E0,2.622284857E0
5.486550625E0,-1.211184503E0,-2.053964306E0,1.836307989E0,3.009611985E0
5.496538625E0,-1.549705106E0,-2.051872757E0,1.987997189E0,3.250215462E0
5.506526625E0,-1.647046044E0,-1.577791622E0,2.065788838E0,3.077282989E0
5.516515625E0,-1.686655960E0,-1.172632787E0,1.797310715E0,2.729505777E0
5.526503625E0,-1.916101871E0,-7.019190627E-1,1.312033916E0,2.426019322E0
5.536491625E0,-1.761306485E0,1.533800679E-1,7.498609686E-1,1.920421165E0
5.546479625E0,-1.494813931E0,2.244050270E-1,3.709078923E-1,1.556405785E0
5.556468625E0,-1.688349460E0,-2.002092487E-1,4.972144747E-1,1.771392073E0
5.566456625E0,-1.916045592E0,-3.569432795E-1,8.514744669E-1,2.126886923E0
5.576444625E0,-1.926716907E0,-4.457911366E-1,1.156178576E0,2.290789531E0
5.586432625E0,-1.656962045E0,-7.881923908E-1,1.477414079E0,2.355742520E0
5.596420625E0,-1.531760440E0,-1.567335046E0,1.690165605E0,2.767578176E0
5.606409625E0,-1.595822973E0,-1.442315728E0,2.046298314E0,2.968882350E0
5.616397625E0,-1.759252797E0,-1.448527225E0,2.443323380E0,3.341112189E0
5.626385625E0,-2.165694365E0,3.933147150E-1,3.104205221E0,3.805393357E0
5.636373625E0,-2.318420129E0,1.075839148E0,3.082798272E0,4.004515820E0
5.646362625E0,-2.314389790E0,7.896430850E-2,2.570861093E0,3.460052344E0
5.656350625E0,-2.009217904E0,-8.348309523E-1,1.708535217E0,2.766404145E0
5.666338625E0,-1.419780559E0,-1.566401246E0,8.066447416E-1,2.262756159E0
5.676326625E0,-9.096970204E-1,-1.249441811E0,7.940062773E-1,1.737555604E0
5.686315625E0,-8.170608985E-1,-4.783285528E-1,1.560721699E0,1.825442121E0
5.696303625E0,-1.318980993E0,-2.237600791E-1,2.276760764E0,2.640723198E0
5.706291625E0,-2.143555052E0,-9.223456442E-2,2.715266855E0,3.460637162E0
5.716279625E0,-2.662585488E0,2.154254580E-1,2.786153820E0,3.859847499E0
5.726267625E0,-2.796874689E0,4.814193910E-1,2.658555880E0,3.888726273E0
5.736256625E0,-2.852503053E0,-2.979688472E-1,2.525974358E0,3.821793500E0
5.746244625E0,-2.824405135E0,-1.134270959E0,2.348351003E0,3.844292836E0
5.756232625E0,-2.680046151E0,-1.627402323E0,2.054257690E0,3.748474403E0
5.766220625E0,-2.460609503E0,-2.083364691E0,1.744504072E0,3.665828968E0
5.776209625E0,-2.372737400E0,-2.930005265E0,1.562066266E0,4.081037202E0
5.786197958E0,-2.780010150E0,-2.892141035E0,1.661050125E0,4.341891721E0
5.796185958E0,-3.031519361E0,-1.050317806E0,1.707045493E0,3.634182362E0
5.806173958E0,-2.577501191E0,-8.020561391E-1,1.658310120E0,3.168090734E0
5.816161958E0,-1.840658756E0,1.160912043E-1,1.420179193E0,2.327748003E0
5.826150958E0,-1.881609146E0,-1.322726719E0,9.790132038E-1,2.499705144E0
5.836138958E0,-1.880739958E0,-2.467378240E0,1.103000488E0,3.292681012E0
5.846126958E0,-1.494714674E0,-2.333165930E0,1.202509866E0,3.020573653E0
5.856114958E0,-1.196576038E0,-2.111352974E0,9.915170360E-1,2.621585709E0
5.866103958E0,-1.159401195E0,-1.885752191E0,1.051860886E0,2.450853684E0
5.876091958E0,-1.132676277E0,-1.435254046E0,1.270399402E0,2.226392680E0
5.886079958E0,-1.239095748E0,-1.157020721E0,1.591348537E0,2.325176421E0
5.896067958E0,-1.625097350E0,-1.151185784E0,2.058245053E0,2.864008171E0
5.906055958E0,-1.381583623E0,-4.330038607E-2,1.866794202E0,2.322836375E0
5.916044958E0,-7.655320913E-1,6.125753617E-1,1.201384131E0,1.550681072E0
5.926032958E0,-2.532238334E-1,1.380210112E0,9.221247657E-1,1.679111773E0
5.936020958E0,2.383461779E-1,2.349353362E0,1.002820435E0,2.565525081E0
5.946008958E0,7.067154606E-1,2.940281162E0,9.459327275E-1,3.168515232E0
5.955997958E0,9.104948730E-1,3.295191949E0,7.999488026E-1,3.511012529E0
5.965985958E0,1.041845921E0,3.500288301E0,7.514666140E-1,3.728560471E0
5.975973958E0,1.145875928E0,3.473351347E0,6.842235609E-1,3.720935784E0
5.985961958E0,1.319980282E0,3.273897559E0,3.752010642E-1,3.549863238E0
5.995949958E0,1.595683809E0,2.980933344E0,4.254434109E-3,3.381151952E0
6.005938958E0,1.856393906E0,2.865688232E0,-2.449299234E-1,3.423208735E0
6.015926958E0,2.116507879E0,2.826576206E0,-2.551828699E-1,3.540375255E0
6.025914958E0,2.265687161E0,2.720262131E0,-1.814537197E-1,3.544868097E0
6.035902958E0,2.395898660E0,2.845374420E0,-1.548446493E-1,3.722964255E0
6.045891958E0,2.835382990E0,2.993691968E0,-2.295470685E-1,4.129682816E0
6.055879958E0,3.259150881E0,3.270358239E0,-6.050447327E-1,4.656542345E0
6.065867958E0,3.749021545E0,3.800734028E0,-8.954029901E-1,5.413177275E0
6.075855958E0,4.195611119E0,3.618863402E0,-9.654119955E-1,5.624175078E0
6.085843958E0,4.032473218E0,2.238546871E0,-1.230038411E0,4.773355930E0
6.095832958E0,3.433190331E0,2.709344795E0,-1.526849509E0,4.632344384E0
6.105820958E0,3.032161970E0,9.610015869E-1,-1.756656779E0,3.633644630E0
6.115808958E0,2.386329984E0,1.485074077E0,-1.985384799E0,3.441187093E0
6.125796958E0,2.371443850E0,1.848647515E0,-1.885387909E0,3.549074687E0
6.135785958E0,2.276996845E0,-2.740765393E-2,-1.830070910E0,2.921408111E0
6.145773958E0,1.777595512E0,-1.003521954E0,-1.838066393E0,2.746887363E0
6.155761958E0,1.655380373E0,5.844005531E-1,-1.877450899E0,2.570336566E0
6.165749958E0,2.205294486E0,4.052553141E-1,-1.778558110E0,2.861961669E0
6.175738958E0,2.249351648E0,8.005382019E-1,-1.814507377E0,2.998813310E0
6.185726958E0,2.109795714E0,9.087742567E-1,-1.603902363E0,2.801715795E0
6.195714958E0,1.960829563E0,-2.232466936E-1,-1.453711367E0,2.451115746E0
6.205702958E0,1.386478619E0,-1.968411355E0,-1.381273136E0,2.775766867E0
6.215690958E0,8.137398262E-1,-4.169463540E0,-1.268368664E0,4.433436341E0
6.225679958E0,3.739552418E-1,-5.980031063E0,-1.185990751E0,6.107961043E0
6.235667958E0,-1.205271214E-1,-5.919693060E0,-9.759469970E-1,6.000813716E0
6.245655958E0,-4.366576396E-2,-4.659798181E0,-2.460701305E-1,4.666495076E0
6.255643958E0,-1.710690647E-1,-3.160477363E0,9.341056374E-1,3.300065928E0
6.265631958E0,-6.749933656E-1,-9.149898469E-1,2.218340648E0,2.492761058E0
6.275620958E0,-9.681360671E-1,1.504427192E0,3.872677000E0,4.265936681E0
6.285608958E0,-9.637799645E-1,1.597189175E0,5.262623895E0,5.583466248E0
6.295596958E0,-7.976741626E-1,-2.045098758E-1,5.579045386E0,5.639490737E0
6.305584958E0,-3.917743392E-1,-1.421341766E0,5.151609828E0,5.358431055E0
6.315573958E0,1.057176590E-1,-7.510543853E-1,4.193490919E0,4.261528482E0
6.325561958E0,1.002953751E0,1.002178264E0,2.741446009E0,3.086390079E0
6.335549958E0,1.384877359E0,1.108095313E0,1.354429738E0,2.231645231E0
6.345537958E0,1.070302712E0,-7.998067153E-1,8.219730712E-2,1.338654203E0
6.355526958E0,9.161796091E-1,-2.338950580E0,-8.660170770E-1,2.657077430E0
6.365514958E0,1.033406343E0,-2.416675864E0,-1.615771042E0,3.085282314E0
6.375502958E0,1.223216611E0,-1.326724461E0,-2.130324265E0,2.791905827E0
6.385490958E0,1.315760054E0,-3.201461667E-1,-2.240405701E0,2.617849460E0
6.395478958E0,1.389139687E0,4.045711899E-1,-1.845511068E0,2.345058213E0
6.405467958E0,1.426870746E0,-3.432567018E-1,-1.155637854E0,1.867962564E0
6.415455958E0,1.152413261E0,-1.465199976E0,-7.347172648E-1,2.003665829E0
6.425443958E0,1.075208380E0,-2.187759125E0,-4.808691680E-1,2.484672656E0
6.435431958E0,7.996640432E-1,-2.880782234E0,-2.416507683E-1,2.999460611E0
6.445419958E0,5.243878014E-1,-3.163793319E0,8.308929987E-3,3.206967379E0
6.455408958E0,2.571511889E-1,-3.571907337E0,6.382001996E-2,3.581720502E0
6.465396958E0,2.566220158E-1,-3.905305048E0,2.635866344E-2,3.913816189E0
6.475384958E0,5.786524478E-1,-3.426811604E0,8.925423861E-2,3.476469868E0
6.485372958E0,8.501091421E-1,-2.704862904E0,2.649185570E-1,2.847657059E0
6.495361958E0,6.966450204E-1,-3.198690087E0,3.441098106E-1,3.291708389E0
6.505349958E0,6.840447092E-1,-3.004285954E0,2.088444898E-1,3.088246635E0
6.515337958E0,1.332941513E0,-6.831769824E-2,2.818668578E-1,1.364129506E0
6.525325958E0,1.832587844E0,2.646187849E0,5.158004344E-1,3.259867854E0
6.535313958E0,1.784727800E0,3.458687115E0,4.731303781E-1,3.920666045E0
6.545302958E0,1.360138082E0,2.381772664E0,1.954379207E-1,2.749729552E0
6.555290958E0,9.999785417E-1,5.884819096E-1,5.799908023E-2,1.161736603E0
6.565278958E0,1.064545251E0,1.368215718E0,8.344093680E-2,1.735578645E0
6.575266958E0,1.134181789E0,1.644405441E0,1.671397724E-1,2.004588060E0
6.585255958E0,7.979798989E-1,3.893152195E-1,1.949449639E-1,9.090334417E-1
6.595243958E0,4.011583163E-1,6.313595420E-1,4.253668123E-1,8.605113544E-1
6.605231958E0,2.134575044E-1,3.792492378E-1,7.613671196E-1,8.769686319E-1
6.615219958E0,1.785841987E-1,3.241491705E-1,9.702963209E-1,1.038479634E0
6.625207958E0,1.942146101E-1,2.080073293E0,1.077322002E0,2.350541835E0
6.635196958E0,1.998502296E-1,2.526183688E0,1.028990087E0,2.735025546E0
6.645184958E0,8.276192889E-2,1.868432738E0,6.115836740E-1,1.967720769E0
6.655172958E0,1.554131448E-2,1.284867167E0,3.427058576E-1,1.329876865E0
6.665160958E0,-6.869228549E-2,5.690761703E-1,1.425977657E-1,5.906779499E-1
6.675149958E0,-1.647397462E-1,-2.437826997E-1,-4.750106234E-2,2.980361380E-1
6.685137958E0,-2.655449400E-1,-8.477679169E-1,-1.291235151E-1,8.977179057E-1
6.695125958E0,-2.604232907E-1,-1.241763833E0,-8.563130379E-2,1.271664432E0
6.705113958E0,-1.711401084E-1,-1.489230863E0,-1.323166430E-2,1.499090583E0
6.715101958E0,-9.429490395E-2,-1.384889054E0,-7.756506979E-2,1.390260968E0
6.725090958E0,1.061627783E-1,-1.211174124E0,-1.789896665E-1,1.228922534E0
6.735078958E0,3.043263420E-1,-1.228156777E0,-2.167814273E-1,1.283735868E0
6.745066958E0,4.594019929E-1,-1.433814461E0,-1.516884685E-1,1.513236099E0
6.755054958E0,4.872468358E-1,-1.657656986E0,-1.553786828E-1,1.734756092E0
6.765043958E0,3.308885616E-1,-1.799729708E0,-2.773808374E-1,1.850798312E0
6.775031958E0,3.837308362E-2,-1.823424965E0,-3.941760830E-1,1.865938338E0
6.785019958E0,-2.736101873E-1,-1.918669676E0,-4.268760518E-1,1.984534964E0
6.795007208E0,-6.795615028E-1,-1.921127261E0,-2.648642510E-1,2.054917726E0
6.804995208E0,-1.116906629E0,-1.860068881E0,1.731302083E-2,2.169708828E0
6.814984208E0,-1.488417223E0,-1.880538229E0,2.731193501E-1,2.413794531E0
6.824972208E0,-1.725855986E0,-2.048987741E0,3.109701312E-1,2.696967198E0
6.834960208E0,-1.878954803E0,-2.290395302E0,2.168112481E-1,2.970418978E0
6.844948208E0,-1.973604560E0,-2.594274514E0,5.307649210E-2,3.260090846E0
6.854937208E0,-1.990912172E0,-2.877050541E0,-1.703609669E-1,3.502880807E0
6.864925208E0,-1.915462771E0,-3.110138099E0,-3.781727654E-1,3.672188892E0
6.874913208E0,-1.848157810E0,-3.209747756E0,-5.046708441E-1,3.738028974E0
6.884901208E0,-1.700999180E0,-3.290766191E0,-5.937489353E-1,3.751676710E0
6.894889208E0,-1.421252157E0,-3.334943660E0,-6.023387875E-1,3.674863116E0
6.904878208E0,-1.119706787E0,-3.235112393E0,-3.263050389E-1,3.438919956E0
6.914866208E0,-8.747001922E-1,-3.087377227E0,-3.272584274E-2,3.209060540E0
6.924854208E0,-6.779022092E-1,-2.991838986E0,2.500661176E-1,3.077853958E0
6.934842208E0,-5.993044480E-1,-3.016435298E0,3.073474887E-1,3.090713544E0
6.944830208E0,-6.051398230E-1,-3.146657469E0,1.319884680E-1,3.207034204E0
6.954819208E0,-5.200157652E-1,-3.518691242E0,-9.565416232E-2,3.558195354E0
6.964807208E0,-4.065379009E-1,-3.966766886E0,-2.981138581E-1,3.998672838E0
6.974795208E0,-2.631153854E-1,-4.455994064E0,-4.949004391E-1,4.491106684E0
6.984783208E0,-2.106407545E-1,-4.888419635E0,-6.560967726E-1,4.936747819E0
6.994772208E0,-3.352430928E-1,-5.157980955E0,-9.238331759E-1,5.250773581E0
7.004760208E0,-6.371423652E-1,-5.318679982E0,-1.188447751E0,5.486958648E0
7.014748208E0,-9.008812465E-1,-5.438511651E0,-1.296666264E0,5.663068020E0
7.024736208E0,-1.222743717E0,-5.309638433E0,-1.359349878E0,5.615620587E0
7.034724208E0,-1.687939570E0,-5.112894829E0,-1.208926454E0,5.518363588E0
7.044713208E0,-2.028647909E0,-5.202242038E0,-1.119935340E0,5.694996903E0
7.054701208E0,-2.332188568E0,-5.737622459E0,-1.000315926E0,6.273758598E0
7.064689208E0,-2.180666599E0,-5.557414196E0,-9.153634840E-1,6.039706091E0
7.074677208E0,-2.235134436E0,-4.712538312E0,-9.607443094E-1,5.303477436E0
7.084666208E0,-2.306005467E0,-3.847276111E0,-1.016679359E0,4.599220761E0
7.094654208E0,-2.508232151E0,-2.740029813E0,-7.311671278E-1,3.785973755E0
7.104642208E0,-2.742863081E0,-1.401667639E0,-2.045502216E-2,3.080322785E0
7.114630208E0,-2.364184824E0,-7.706583452E-1,5.229831541E-1,2.541022540E0
7.124618208E0,-1.398050259E0,-8.533531773E-1,3.835887489E-1,1.682229622E0
7.134607208E0,7.991184980E-2,-1.012848848E0,-5.028751642E-2,1.017240152E0
7.144595208E0,1.382691378E0,-7.554093915E-1,-9.444475347E-1,1.836970316E0
7.154583208E0,2.119879091E0,-8.324482119E-1,-2.030732149E0,3.051348955E0
7.164571208E0,2.729995114E0,-4.606430644E-1,-2.393232037E0,3.659593548E0
7.174560208E0,3.907156569E0,1.254117830E0,-1.635115970E0,4.417271581E0
7.184548208E0,3.267964682E0,2.517637398E0,7.202307880E-1,4.187699084E0
7.194536208E0,1.863712281E-2,2.731620932E0,2.675837910E0,3.823899682E0
7.204524208E0,-1.963364038E0,4.429033138E0,2.298023579E0,5.362093365E0
7.214512208E0,-2.916350262E0,6.494966694E0,-4.878519130E-1,7.136363969E0
7.224501208E0,-1.160344863E0,6.857439101E0,-1.386630939E0,7.091799249E0
7.234489208E0,9.750848982E-1,6.819417581E0,-8.952940857E-1,6.946711323E0
7.244477208E0,1.900317605E0,6.043718936E0,-1.437502885E-1,6.337066334E0
7.254465208E0,2.772903152E0,5.134377499E0,1.176229994E0,5.952675129E0
7.264453208E0,3.735658319E0,4.677598860E0,2.070357560E0,6.334149871E0
7.274442208E0,4.593932805E0,4.887384093E0,2.863404894E0,7.293135778E0
7.284430208E0,4.805827714E0,5.167140033E0,3.847385454E0,8.037268875E0
7.294418208E0,4.451133274E0,5.773441333E0,4.965060845E0,8.820263116E0
7.304406208E0,4.419414468E0,6.932033200E0,6.123690135E0,1.025104333E1
7.314395208E0,5.239154341E0,8.008612021E0,7.132502065E0,1.193562694E1
7.324383208E0,6.211283180E0,8.970877776E0,7.851762215E0,1.344272505E1
7.334371208E0,6.600144655E0,9.526231701E0,8.126579597E0,1.415458568E1
7.344359208E0,6.118293740E0,9.981162035E0,7.733356099E0,1.403074875E1
7.354347208E0,5.149353973E0,1.030431776E1,6.811343746E0,1.338242185E1
7.364336208E0,4.427613434E0,1.019373405E1,5.783918374E0,1.252875438E1
7.374324208E0,4.002510915E0,9.996242005E0,5.200839876E0,1.195799662E1
7.384312208E0,3.757266412E0,9.989265107E0,5.207528506E0,1.187521879E1
7.394300208E0,3.849454491E0,1.024009429E1,5.629364769E0,1.230315320E1
7.404289208E0,4.088697412E0,1.084175056E1,6.533534929E0,1.330218329E1
7.414277208E0,4.221404357E0,1.143578440E1,6.961794358E0,1.403794858E1
7.424265208E0,4.149719247E0,1.173241950E1,7.176168487E0,1.436548750E1
7.434253208E0,3.947837987E0,1.197520758E1,7.628647669E0,1.473727542E1
7.444241208E0,3.561093496E0,1.268307151E1,7.829144601E0,1.532439868E1
7.454230208E0,3.108816628E0,1.420336161E1,8.220133878E0,1.670241967E1
7.464218208E0,2.395729968E0,1.672597207E1,9.073766552E0,1.917891820E1
7.474206208E0,2.064865270E0,1.980468080E1,9.377853341E0,2.200984288E1
7.484194208E0,2.717406936E0,2.423988041E1,7.389636882E0,2.548652263E1
7.494182208E0,2.436499679E0,2.662310494E1,5.857477516E0,2.736852736E1
7.504171208E0,7.814840996E-1,2.359493954E1,3.652536055E0,2.388876114E1
7.514159208E0,-1.527283227E0,1.831991838E1,1.728595991E0,1.846456194E1
7.524147208E0,-3.479073725E0,1.407980761E1,1.272499575E0,1.455899006E1
7.534135208E0,-2.430146825E0,7.916276885E0,4.284196436E-1,8.291959762E0
7.544123208E0,-3.650948828E-1,3.409673415E0,3.431590533E-1,3.446291515E0
7.554112208E0,-2.175642415E-1,5.784157525E0,2.547850546E0,6.324188080E0
7.564100208E0,5.194314822E-1,4.535960001E0,4.218914028E0,6.216428055E0
7.574088208E0,1.459038180E0,4.099512130E-1,4.761093591E0,4.996485224E0
7.584076208E0,1.620080732E0,-1.775204147E0,4.768337122E0,5.339761254E0
7.594065208E0,1.067546846E0,-4.577651233E0,3.678455300E0,5.968716820E0
7.604053208E0,6.145434614E-2,-7.401680392E0,1.470472995E0,7.546584664E0
7.614041208E0,-4.384179439E-1,-9.159411305E0,2.030078723E-1,9.172144675E0
7.624029208E0,-6.379502311E-1,-1.022380044E1,-1.356470709E-1,1.024458276E1
7.634017208E0,-5.874857268E-1,-1.080183980E1,3.031541580E-1,1.082205087E1
7.644006208E0,-6.002500889E-1,-1.109455376E1,1.002910920E0,1.115595149E1
7.653994208E0,-7.169754238E-1,-1.139770265E1,1.661527843E0,1.154046595E1
7.663982208E0,-7.500077337E-1,-1.191061222E1,2.427074552E0,1.217850098E1
7.673970208E0,-5.539690116E-1,-1.260403119E1,2.688940936E0,1.289956926E1
7.683959208E0,-3.259024581E-1,-1.308318829E1,2.380444762E0,1.330197525E1
7.693947208E0,-2.257965547E-1,-1.404566455E1,1.638732473E0,1.414274092E1
7.703935208E0,1.327253634E-1,-1.638845441E1,-4.542503035E-1,1.639528582E1
7.713923208E0,1.384933054E0,-2.352870462E1,-4.912134773E0,2.407586029E1
7.723911208E0,1.871535709E0,-2.701158459E1,-5.927163463E0,2.771749654E1
7.733900208E0,1.506573997E0,-2.149811163E1,-3.715244812E-1,2.155403905E1
7.743888208E0,2.207130512E0,-1.762374888E1,3.087973643E0,1.802785431E1
7.753876208E0,3.032746106E0,-1.564863194E1,4.338829311E0,1.651976605E1
7.763864208E0,3.529855331E0,-1.439105724E1,4.849913381E0,1.559115348E1
7.773853208E0,3.940965170E0,-1.311457381E1,4.704185565E0,1.447938584E1
7.783841208E0,4.140491756E0,-1.151447038E1,4.009298363E0,1.287638045E1
7.793829458E0,3.825826769E0,-9.744008324E0,2.777951345E0,1.083049687E1
7.803817458E0,2.888409342E0,-8.855067823E0,1.125338752E0,9.381978575E0
7.813805458E0,2.145378214E0,-8.849852691E0,-2.415566647E-1,9.109384719E0
7.823794458E0,1.761543005E0,-9.013426795E0,-1.175849413E0,9.258915605E0
7.833782458E0,1.486852508E0,-9.138595802E0,-1.940874624E0,9.460003061E0
7.843770458E0,1.217523031E0,-9.159256353E0,-2.396119977E0,9.545455999E0
7.853758458E0,1.009442260E0,-9.169493074E0,-2.641656257E0,9.595672185E0
7.863746458E0,8.816402525E-1,-9.169136394E0,-2.690413265E0,9.596284452E0
7.873735458E0,8.090311365E-1,-9.128418138E0,-2.607757901E0,9.528008730E0
7.883723458E0,7.179739089E-1,-9.099346951E0,-2.706162740E0,9.520342339E0
7.893711458E0,6.423349851E-1,-9.058766105E0,-2.793418985E0,9.501422378E0
7.903699458E0,5.826770863E-1,-9.031956621E0,-2.897235714E0,9.503143048E0
7.913688458E0,5.774380542E-1,-8.974083220E0,-3.161721066E0,9.532265441E0
7.923676458E0,5.875867740E-1,-8.808136316E0,-3.557861155E0,9.517715040E0
7.933664458E0,5.107776761E-1,-8.655170816E0,-3.809017779E0,9.470031263E0
7.943652458E0,4.261838876E-1,-8.564974006E0,-3.781843429E0,9.372446433E0
7.953640458E0,4.722727378E-1,-8.594877251E0,-3.271749292E0,9.208653535E0
7.963629458E0,5.658460953E-1,-8.679429744E0,-2.596621587E0,9.077176111E0
7.973617458E0,6.650132648E-1,-8.795924406E0,-2.044867939E0,9.054944157E0
7.983605458E0,7.048849167E-1,-8.949265882E0,-1.678338003E0,9.132526542E0
7.993593458E0,6.945909666E-1,-9.088912595E0,-1.397470361E0,9.221914778E0
8.003582458E0,6.853240069E-1,-9.203932005E0,-1.173010517E0,9.303654498E0
8.013570458E0,6.801198388E-1,-9.300566599E0,-9.914809294E-1,9.377960145E0
8.023558458E0,6.774371362E-1,-9.498375565E0,-8.753026016E-1,9.562646815E0
8.033546458E0,7.163200971E-1,-9.774436650E0,-8.168485714E-1,9.834631050E0
8.043534458E0,8.225498991E-1,-9.982694006E0,-8.122513443E-1,1.004940397E1
8.053523458E0,9.005771182E-1,-1.009845718E1,-1.030474110E0,1.019076805E1
8.063511458E0,9.449828473E-1,-1.036266479E1,-1.488537237E0,1.051159157E1
8.073499458E0,8.525940625E-1,-1.059102663E1,-1.912917185E0,1.079611105E1
8.083487458E0,7.190767669E-1,-1.079617151E1,-2.191684361E0,1.103983111E1
8.093475458E0,6.280426358E-1,-1.095292484E1,-2.236236344E0,1.119650629E1
8.103464458E0,5.679470730E-1,-1.099939617E1,-2.068023936E0,1.120651609E1
8.113452458E0,5.955029538E-1,-1.091174173E1,-1.626352455E0,1.104833714E1
8.123440458E0,5.967818130E-1,-1.068902128E1,-1.457943143E0,1.080448623E1
8.133428458E0,5.341091995E-1,-9.948274956E0,-2.022051665E0,1.016573363E1
8.143417458E0,6.702183831E-1,-8.887226340E0,-2.431678650E0,9.238238238E0
8.153405458E0,5.571202588E-1,-8.728247563E0,-2.087886928E0,8.991771812E0
8.163393458E0,4.315263424E-1,-8.738269690E0,-1.685880034E0,8.909868891E0
8.173381458E0,3.256788387E-1,-8.695021929E0,-1.622665201E0,8.851130742E0
8.183369458E0,2.479967149E-1,-8.627032260E0,-1.747462325E0,8.805726123E0
8.193358458E0,1.560153349E-1,-8.639028407E0,-1.803062329E0,8.826561413E0
8.203346458E0,3.085418921E-1,-8.378957704E0,-1.407174839E0,8.501898101E0
8.213334458E0,6.599540345E-1,-7.116463737E0,-7.117698669E-1,7.182354196E0
8.223322458E0,1.993324148E0,4.834535789E0,2.218090095E0,5.680316991E0
8.233310458E0,2.439337187E0,5.301937065E1,6.495598193E0,5.347145805E1
8.243299458E0,9.116505021E0,8.251129500E1,2.276326199E1,8.607781691E1
8.253287458E0,8.816998941E0,4.448556991E1,2.991707072E1,5.432988608E1
8.263275458E0,1.107770354E0,1.711482477E1,1.337831364E1,2.175140588E1
8.273263458E0,-3.209365933E0,1.240387983E1,6.315092892E0,1.428414025E1
8.283251458E0,-6.059772466E0,1.003769759E1,6.470479724E0,1.339191260E1
8.293240458E0,-6.023450732E0,6.689447426E0,6.039215995E0,1.083987064E1
8.303228458E0,-7.100751100E0,4.514979022E0,3.264135633E0,9.025535063E0
8.313216458E0,-8.307317033E0,2.579015036E0,-3.988151908E-1,8.707576494E0
8.323204458E0,-7.867158519E0,1.640788354E0,-4.481766837E0,9.201663087E0
8.333193458E0,-6.142186047E0,1.186972498E0,-5.792261181E0,8.525587531E0
8.343181458E0,-4.560105785E0,3.124500614E-1,-4.774379050E0,6.609605520E0
8.353169458E0,-3.054150132E0,1.230973381E-1,-3.866500586E0,4.928773962E0
8.363157458E0,-8.703261825E-1,1.311014162E0,-2.601369526E0,3.040287685E0
8.373145458E0,1.812885651E0,2.865265478E0,-7.160681552E-1,3.465408237E0
8.383134458E0,5.253156669E0,4.030453590E0,1.569273983E0,6.804618428E0
8.393122458E0,8.021201077E0,5.319704999E0,3.809291428E0,1.035131051E1
8.403110458E0,9.357102742E0,6.721849186E0,4.820228822E0,1.248892446E1
8.413098458E0,7.562013384E0,8.156299240E0,4.816159160E0,1.212042296E1
8.423086458E0,4.672695677E0,9.330122520E0,4.976847662E0,1.156089459E1
8.433075458E0,3.262141732E0,9.357605018E0,5.377034025E0,1.127469890E1
8.443063458E0,3.475980840E0,8.762487103E0,6.340845784E0,1.136089558E1
8.453051458E0,4.163891729E0,8.485899770E0,7.500822272E0,1.206693101E1
8.463039458E0,4.929720274E0,8.719114797E0,8.534691861E0,1.315925796E1
8.473027458E0,5.525573183E0,9.650021349E0,9.042192172E0,1.433234490E1
8.483016458E0,6.321545295E0,1.047277020E1,9.129750134E0,1.526411439E1
8.493004458E0,7.079882972E0,1.087194792E1,8.665511616E0,1.560176548E1
8.502992458E0,7.373076982E0,1.083050753E1,7.782946919E0,1.523930511E1
8.512980458E0,7.211934151E0,1.045917425E1,7.153560812E0,1.458011497E1
8.522969458E0,6.758817623E0,9.683715345E0,6.886424333E0,1.367036205E1
8.532957458E0,6.178007845E0,8.991301516E0,6.682852936E0,1.279342828E1
8.542945458E0,5.554702258E0,8.677875554E0,6.350910012E0,1.210348294E1
8.552933458E0,4.747352049E0,8.160836095E0,5.800123347E0,1.108052472E1
8.562921458E0,3.904661855E0,7.525882854E0,5.046468120E0,9.866718675E0
8.572910458E0,3.251148674E0,6.786781932E0,4.235149992E0,8.635211181E0
8.582898458E0,2.748441617E0,5.926550674E0,3.139676478E0,7.248137872E0
8.592886458E0,2.367277855E0,5.278996099E0,2.030091294E0,6.131319183E0
8.602874458E0,2.048456960E0,4.551498976E0,1.060203109E0,5.102582628E0
8.612862458E0,1.845200727E0,3.909119187E0,2.597116846E-1,4.330522913E0
8.622851458E0,2.060707754E0,3.695539695E0,-1.123314446E-1,4.232747150E0
8.632839458E0,2.214005230E0,3.826192805E0,-8.710129380E-2,4.421442884E0
8.642827458E0,2.182459794E0,3.952930035E0,1.624865216E-1,4.518316997E0
8.652815458E0,2.339585734E0,4.718649237E0,6.969506836E-1,5.312725504E0
8.662803458E0,2.366406181E0,5.989393040E0,1.285062757E0,6.566893748E0
8.672792458E0,1.724793547E0,7.998287008E0,2.088433642E0,8.444469369E0
8.682780458E0,6.236769585E-1,1.056105848E1,2.938583715E0,1.097999105E1
8.692768458E0,-2.320148858E-1,1.204780661E1,2.750796291E0,1.236003056E1
8.702756458E0,-8.550231421E-1,1.466707739E1,2.180229958E0,1.485286593E1
8.712744458E0,-1.201937570E0,1.714698095E1,1.051612087E0,1.722119327E1
8.722733458E0,-1.681133411E0,1.632761998E1,-6.731665492E-1,1.642773681E1
8.732721458E0,-1.093719787E0,1.147672309E1,-1.333845200E0,1.160562532E1
8.742709458E0,-4.779239255E-1,7.202512532E0,-1.856847650E0,7.453353692E0
8.752697458E0,-1.169900675E-1,4.757639056E0,-1.862004748E0,5.110369629E0
8.762686458E0,-2.595273511E-1,3.536735165E0,-1.856653961E0,4.002875717E0
8.772674458E0,1.541282192E-2,1.773941149E0,-1.487290172E0,2.314980952E0
8.782662458E0,5.529501343E-1,6.914139551E-1,-1.274339987E0,1.551692466E0
8.792649958E0,7.225667506E-2,2.583073003E0,-8.020918071E-2,2.585327964E0
8.802637958E0,-6.790392002E-1,2.782066616E0,1.137454183E0,3.081361859E0
8.812626958E0,-1.176795858E0,2.719750500E-1,8.740476429E-1,1.490898454E0
8.822614958E0,-1.552529896E0,-1.159554904E0,1.335849041E0,2.353594976E0
8.832602958E0,-1.847630099E0,-3.037679987E0,1.669812909E0,3.928041731E0
8.842590958E0,-1.791192043E0,-6.265367001E0,1.365896713E0,6.657992672E0
8.852578958E0,-1.022900066E0,-8.758819730E0,1.213166782E0,8.901405577E0
8.862567958E0,-2.990941438E-1,-9.986544982E0,9.597730869E-1,1.003701661E1
8.872555958E0,1.304266767E-1,-1.052594712E1,8.304800391E-1,1.055946357E1
8.882543958E0,2.206085761E-1,-1.083214475E1,9.598455924E-1,1.087682544E1
8.892531958E0,2.383205232E-1,-1.104782515E1,1.542764461E0,1.115756960E1
8.902520958E0,2.441363101E-1,-1.129796669E1,2.549604710E0,1.158465097E1
8.912508958E0,1.829728264E-1,-1.159230384E1,3.281358021E0,1.204916170E1
8.922496958E0,1.522097477E-1,-1.190248927E1,3.918124484E0,1.253172447E1
8.932484958E0,2.609903245E-1,-1.222391305E1,4.418115216E0,1.300045801E1
8.942472958E0,3.804407541E-1,-1.267655537E1,4.800272859E0,1.356032488E1
8.952461958E0,6.806778824E-1,-1.297313434E1,4.922086734E0,1.389217315E1
8.962449958E0,1.145875782E0,-1.296508272E1,4.710174283E0,1.384168137E1
8.972437958E0,1.526941603E0,-1.271442896E1,4.140946670E0,1.345866612E1
8.982425958E0,1.858508698E0,-1.241388441E1,3.301142660E0,1.297906482E1
8.992413958E0,2.006294150E0,-1.226299584E1,2.426765234E0,1.266078484E1
9.002402958E0,1.936792975E0,-1.211123721E1,1.662399663E0,1.237726975E1
9.012390958E0,1.841868545E0,-1.218957470E1,1.167720541E0,1.238312490E1
9.022378958E0,1.710755844E0,-1.232142590E1,7.686679530E-1,1.246334916E1
9.032366958E0,1.510783846E0,-1.256218267E1,1.602441144E-1,1.265371800E1
9.042354958E0,1.360604982E0,-1.354221928E1,-1.061650879E0,1.365174170E1
9.052343958E0,1.022278287E0,-1.583050140E1,-2.545437984E0,1.606639605E1
9.062331958E0,6.177163068E-1,-1.743595269E1,-2.738553391E0,1.766051229E1
9.072319958E0,5.263189540E-1,-1.726968594E1,-1.948519712E0,1.738723075E1
9.082307958E0,8.022529710E-1,-1.578754775E1,-9.786315268E-1,1.583818151E1
9.092296958E0,9.881221426E-1,-1.282129852E1,-4.322027191E-1,1.286657998E1
9.102284958E0,1.029857083E0,-1.085458637E1,-3.424971485E-1,1.090871006E1
9.112272958E0,1.033345751E0,-1.018939074E1,-3.757379848E-1,1.024854459E1
9.122260958E0,9.768976081E-1,-9.800224625E0,-4.856703899E-1,9.860760993E0
9.132248958E0,9.158184705E-1,-9.536808729E0,-6.530837023E-1,9.602914273E0
9.142237958E0,8.764578652E-1,-9.436646510E0,-7.818545938E-1,9.509456995E0
9.152225958E0,8.307294960E-1,-9.434335690E0,-9.566185141E-1,9.519029383E0
9.162213958E0,7.708887986E-1,-9.463092297E0,-1.180238333E0,9.567515241E0
9.172201958E0,7.265257542E-1,-9.522725710E0,-1.420864633E0,9.655516606E0
9.182189958E0,6.567822124E-1,-9.533292798E0,-1.579879662E0,9.685610678E0
9.192178958E0,6.437484764E-1,-9.478673957E0,-1.625198507E0,9.638513489E0
9.202166958E0,6.180121028E-1,-9.462119320E0,-1.560858524E0,9.609886592E0
9.212154958E0,5.713411624E-1,-9.499864851E0,-1.448133123E0,9.626575323E0
9.222142958E0,5.302041730E-1,-9.650819494E0,-1.268561476E0,9.748265568E0
9.232131958E0,4.900919813E-1,-9.899034383E0,-1.077855414E0,9.969595988E0
9.242119958E0,4.824149526E-1,-1.016424654E1,-9.644311251E-1,1.022128952E1
9.252107958E0,5.102685298E-1,-1.035863957E1,-9.396077943E-1,1.041367613E1
9.262095958E0,5.467717469E-1,-1.052134770E1,-9.176905297E-1,1.057543723E1
9.272083958E0,5.949806513E-1,-1.053882970E1,-9.283587746E-1,1.059635709E1
9.282072958E0,6.994702488E-1,-1.042191463E1,-8.654019499E-1,1.048114897E1
9.292060958E0,8.181327662E-1,-1.016409919E1,-7.137742925E-1,1.022192386E1
9.302048958E0,8.875837279E-1,-9.611491706E0,-4.917023045E-1,9.664902941E0
9.312036958E0,1.005508107E0,-9.126442364E0,-2.481540781E-1,9.185019174E0
9.322024958E0,9.874350947E-1,-8.735778776E0,-1.815121919E-1,8.793281843E0
9.332013958E0,9.007102154E-1,-8.469260933E0,-2.107529479E-1,8.519628891E0
9.342001958E0,5.825634310E-1,-8.351074086E0,-1.144206548E-1,8.372150897E0
9.351989958E0,5.335291922E-2,-8.302369704E0,-4.072041911E-1,8.312520946E0
9.361977958E0,-6.339061506E-2,-7.946025764E0,-8.140300673E-1,7.987865094E0
9.371965958E0,-4.469458155E-2,-7.488323849E0,-1.117572627E0,7.571390906E0
9.381954958E0,-4.870182462E-2,-7.426527550E0,-1.832597054E0,7.649450652E0
9.391942958E0,-5.969545251E-1,-7.780709190E0,-2.049068140E0,8.068114429E0
9.401930958E0,-3.680304044E-1,-3.635982880E0,-3.900560617E-1,3.675317893E0
9.411918958E0,2.425587459E0,1.975873338E1,1.436585457E0,1.995882755E1
9.421906958E0,8.746078647E0,7.073324852E1,4.892589285E0,7.143965122E1
9.431895958E0,8.582049045E0,6.842629273E1,2.042794487E1,7.192433548E1
9.441883958E0,5.816724177E0,4.346122192E1,2.643765698E1,5.120216595E1
9.451871958E0,8.290783153E-1,2.321374552E1,1.881616923E1,2.989337011E1
9.461859958E0,-1.641757530E0,1.656413517E1,9.282546065E0,1.905863592E1
9.471847958E0,-3.905771656E0,1.318998067E1,4.023933359E0,1.433257416E1
9.481836958E0,-5.415208742E0,7.882943078E0,3.555881873E0,1.020340988E1
9.491824958E0,-6.654968734E0,3.875250944E0,4.613085945E0,8.977011789E0
9.501812958E0,-7.889686671E0,1.582587508E0,4.445526379E0,9.193173760E0
9.511800958E0,-8.156718485E0,1.621449273E0,4.268937542E0,9.347993471E0
9.521788958E0,-6.076496673E0,4.799132068E0,5.020343930E0,9.228181489E0
9.531777958E0,-2.631462806E0,8.978658081E0,5.825265205E0,1.102155217E1
9.541765958E0,1.634150594E-1,1.184299268E1,6.961491473E0,1.373846948E1
9.551753958E0,1.453977707E0,1.237979281E1,7.918428660E0,1.476735703E1
9.561741958E0,1.800386351E0,1.174573478E1,8.383485788E0,1.454257578E1
9.571730958E0,2.078709284E0,1.131213801E1,7.829120042E0,1.391332524E1
9.581718958E0,2.121401414E0,1.138272676E1,6.830179381E0,1.344314557E1
9.591706958E0,1.911164044E0,1.129527464E1,6.036920378E0,1.294913838E1
9.601694958E0,1.611743333E0,1.099478739E1,5.599422932E0,1.244333571E1
9.611682958E0,1.245952047E0,1.074151642E1,5.553439844E0,1.215620276E1
9.621671958E0,7.301193067E-1,1.045642138E1,5.769681573E0,1.196490902E1
9.631659958E0,2.108444569E-1,1.062429495E1,6.026418779E0,1.221629329E1
9.641647958E0,-3.120533279E-1,1.110372921E1,6.419622397E0,1.282972062E1
9.651635958E0,-8.630450834E-1,1.158778745E1,6.660359867E0,1.339335874E1
9.661623958E0,-1.203051684E0,1.214563989E1,6.663649510E0,1.390568684E1
9.671612958E0,-1.294795301E0,1.323039896E1,6.291270751E0,1.470714246E1
9.681600958E0,-1.643636971E0,1.541081866E1,5.950831822E0,1.660142385E1
9.691588958E0,-1.601906124E0,1.665614228E1,4.825749178E0,1.741496581E1
9.701576958E0,-7.363213022E-1,1.594735683E1,2.792227030E0,1.620669278E1
9.711564958E0,-3.177786291E0,2.368008202E1,3.594971386E0,2.416130024E1
9.721553958E0,-5.630235420E0,2.601717903E1,5.046901399E0,2.709362230E1
9.731541958E0,-5.831483134E0,2.069897033E1,4.415692130E0,2.195340305E1
9.741529958E0,-3.868477530E0,1.363198106E1,2.905273882E0,1.446501442E1
9.751517958E0,-2.463612633E0,9.059603426E0,2.263411425E0,9.657579030E0
9.761505958E0,-1.607169933E0,6.013492339E0,1.939549206E0,6.519734384E0
9.771494958E0,-9.097346619E-1,3.919238963E0,2.137709883E0,4.556078879E0
9.781482958E0,-3.558798172E-1,5.164481304E0,3.247396808E0,6.110982214E0
9.791471333E0,9.517011519E-1,3.693348743E0,4.082378034E0,5.586803239E0
9.801459333E0,1.720160944E0,-2.737110883E-1,4.346909578E0,4.682893797E0
9.811447333E0,1.220938535E0,-3.359951617E0,4.932166164E0,6.091488229E0
9.821436333E0,1.924122790E-1,-6.113591409E0,3.615576682E0,7.105309081E0
9.831424333E0,-3.697641769E-1,-8.572669526E0,1.471516723E0,8.705903159E0
9.841412333E0,1.748142064E-2,-9.779437189E0,3.302658697E-1,9.785027995E0
9.851400333E0,5.229629812E-1,-1.039323871E1,1.174915393E-1,1.040705076E1
9.861388333E0,8.453651498E-1,-1.065437536E1,-4.911376096E-2,1.068797309E1
9.871377333E0,1.064187255E0,-1.082629052E1,2.104471020E-1,1.088050315E1
9.881365333E0,1.311875749E0,-1.093718647E1,6.116310364E-1,1.103254995E1
9.891353333E0,1.578040421E0,-1.100235486E1,8.503746057E-1,1.114742845E1
9.901341333E0,1.755043240E0,-1.122004436E1,1.308185863E0,1.143157568E1
9.911330333E0,1.995201982E0,-1.159888429E1,1.880503145E0,1.191852507E1
9.921318333E0,2.296759411E0,-1.208926337E1,1.756770215E0,1.243027088E1
9.931306333E0,2.664872042E0,-1.252266250E1,1.446069056E0,1.288447651E1
9.941294333E0,3.378309535E0,-1.279954337E1,1.034071902E0,1.327819982E1
9.951282333E0,4.530770012E0,-1.460167511E1,-3.705391888E-1,1.529294257E1
9.961271333E0,6.161142136E0,-1.973505683E1,-3.707013102E0,2.100414451E1
9.971259333E0,5.613716451E0,-1.925712881E1,-3.497865214E0,2.036138216E1
9.981247333E0,4.988219912E0,-1.579633962E1,-1.000641031E0,1.659542003E1
9.991235333E0,5.595297722E0,-1.417253275E1,4.714914767E-1,1.524435454E1
1.000122333E1,6.023898629E0,-1.486642184E1,1.029578317E0,1.607351500E1
1.001121233E1,5.967032703E0,-1.651846140E1,7.046549018E-1,1.757730312E1
1.002120033E1,5.386869042E0,-1.631828197E1,7.364275753E-2,1.718458926E1
1.003118833E1,3.976092610E0,-1.320634820E1,-5.250996999E-1,1.380190837E1
1.004117633E1,2.901975467E0,-1.015292283E1,-8.204783767E-1,1.059134025E1
1.005116433E1,2.596920672E0,-9.091856083E0,-1.043130409E0,9.512831601E0
1.006115333E1,2.296876063E0,-8.795014579E0,-1.182037302E0,9.166522420E0
1.007114133E1,2.071011425E0,-8.851168900E0,-1.206580040E0,9.169957176E0
1.008112933E1,1.932706941E0,-8.970604126E0,-1.133838265E0,9.246225377E0
1.009111733E1,1.778002332E0,-9.040578926E0,-1.007818927E0,9.268713967E0
1.010110533E1,1.620928140E0,-9.069700983E0,-9.147161973E-1,9.258703456E0
1.011109433E1,1.477834786E0,-9.107916631E0,-8.707813883E-1,9.268031141E0
1.012108233E1,1.368003757E0,-9.138792853E0,-8.238289044E-1,9.277265931E0
1.013107033E1,1.259611143E0,-9.172619580E0,-8.328779823E-1,9.296088205E0
1.014105833E1,1.173685578E0,-9.221192985E0,-8.492127639E-1,9.334296986E0
1.015104633E1,1.088660630E0,-9.276065011E0,-8.635290867E-1,9.379565371E0
1.016103533E1,1.051488857E0,-9.325949362E0,-8.808321673E-1,9.426283765E0
1.017102333E1,1.041195273E0,-9.393187664E0,-9.056057236E-1,9.494007785E0
1.018101133E1,1.042817144E0,-9.449951264E0,-8.831839174E-1,9.548249071E0
1.019099933E1,1.056888761E0,-9.466734527E0,-8.466347265E-1,9.563099227E0
1.020098833E1,1.072049714E0,-9.470915871E0,-7.957399768E-1,9.564556453E0
1.021097633E1,1.099337792E0,-9.496543048E0,-7.251443495E-1,9.587424460E0
1.022096433E1,1.120058132E0,-9.494415246E0,-5.655561465E-1,9.576967414E0
1.023095233E1,1.142858180E0,-9.490837335E0,-4.893633451E-1,9.571916977E0
1.024094033E1,1.191881382E0,-9.479058119E0,-4.262730577E-1,9.563202015E0
1.025092933E1,1.261644951E0,-9.446024859E0,-3.387947281E-1,9.535927615E0
1.026091733E1,1.367980514E0,-9.399359400E0,-2.669622320E-1,9.502136426E0
1.027090533E1,1.470101843E0,-9.348324317E0,-2.103705400E-1,9.465549257E0
1.028089333E1,1.604129966E0,-9.359071500E0,-1.233691605E-1,9.496350469E0
1.029088133E1,1.713356539E0,-9.590301982E0,-9.106855653E-2,9.742575440E0
1.030087033E1,1.722868643E0,-9.751347749E0,-7.131023012E-2,9.902633207E0
1.031085833E1,1.747108130E0,-9.850090849E0,-5.690100968E-2,1.000399492E1
1.032084633E1,1.804135585E0,-1.007449061E1,-5.658116698E-2,1.023491416E1
1.033083433E1,1.929726030E0,-1.031710329E1,-2.412279781E-1,1.049879296E1
1.034082233E1,2.119975278E0,-1.057882934E1,-5.500744736E-1,1.080317117E1
1.035081133E1,2.329458649E0,-1.075952584E1,-9.861837175E-1,1.105288796E1
1.036079933E1,2.254890277E0,-1.037928024E1,-1.644110157E0,1.074788754E1
1.037078733E1,1.735947111E0,-9.400940487E0,-2.176963411E0,9.804609330E0
1.038077533E1,1.313074282E0,-9.036039732E0,-2.162990904E0,9.383640432E0
1.039076333E1,1.234925075E0,-8.763464758E0,-1.772047089E0,9.025713567E0
1.040075233E1,1.238791254E0,-8.410611021E0,-1.246725780E0,8.592281809E0
1.041074033E1,1.361166169E0,-8.188326779E0,-7.757432301E-1,8.336860700E0
1.042072833E1,1.439573238E0,-7.735898468E0,-7.428380240E-1,7.903689299E0
1.043071633E1,1.543739777E0,-6.434739203E0,-7.524913386E-2,6.617753663E0
1.044070433E1,7.130407593E-1,8.830284399E0,2.625570567E0,9.239911823E0
1.045069333E1,-2.695728384E0,7.008845500E1,1.051054087E1,7.092340900E1
1.046068133E1,-7.378633592E-1,9.681452004E1,3.594282994E1,1.032738242E2
1.047066933E1,-1.466653448E0,5.286694076E1,3.732892176E1,6.473417102E1
1.048065733E1,-5.343872126E0,2.285806641E1,1.503088062E1,2.787428100E1
1.049064533E1,-6.334151891E0,1.514829037E1,4.185296923E0,1.694428788E1
1.050063433E1,-6.458157302E0,1.349270973E1,-1.208223619E0,1.500735873E1
1.051062233E1,-7.580141507E0,9.964520860E0,-1.902897397E0,1.266377668E1
1.052061033E1,-9.077039824E0,5.933043423E0,3.571298057E-1,1.084994000E1
1.053059833E1,-8.915836766E0,4.267202089E0,3.853944860E0,1.060914935E1
1.054058633E1,-7.606116008E0,4.662361600E0,6.690446130E0,1.115135354E1
1.055057533E1,-4.315171769E0,7.381201104E0,7.807224559E0,1.157823788E1
1.056056333E1,-1.922521237E0,1.032290606E1,6.410616515E0,1.230262092E1
1.057055133E1,-1.377481362E0,1.162091543E1,4.735676329E0,1.262417366E1
1.058053933E1,-1.763252292E0,1.186358658E1,4.474819467E0,1.280147469E1
1.059052733E1,-2.275469114E0,1.179911050E1,4.780375662E0,1.293246920E1
1.060051633E1,-2.887447475E0,1.137610070E1,5.349895343E0,1.289862009E1
1.061050433E1,-3.675966433E0,1.091153825E1,5.652679957E0,1.282681515E1
1.062049233E1,-4.365698144E0,1.043544158E1,5.595194811E0,1.261998281E1
1.063048033E1,-4.820708878E0,1.012439309E1,5.382282486E0,1.243830914E1
1.064046833E1,-5.059157748E0,1.018997780E1,5.047915891E0,1.244637214E1
1.065045733E1,-5.155773046E0,1.050800201E1,4.760628737E0,1.263580975E1
1.066044533E1,-5.007569518E0,1.060611011E1,4.704702166E0,1.263722859E1
1.067043333E1,-5.049863014E0,1.127051986E1,4.733779492E0,1.322627698E1
1.068042133E1,-5.266591816E0,1.209850782E1,4.693997961E0,1.400515968E1
1.069040933E1,-5.665902266E0,1.307171956E1,4.602159253E0,1.497171235E1
1.070039833E1,-5.740068934E0,1.324467085E1,4.382913809E0,1.508574263E1
1.071038633E1,-5.288157517E0,1.232014653E1,3.934525339E0,1.397251266E1
1.072037433E1,-4.873215705E0,1.139355230E1,3.528609290E0,1.288457794E1
1.073036233E1,-4.602447520E0,1.026929762E1,3.132639354E0,1.168137090E1
1.074035033E1,-4.345821119E0,9.084860474E0,2.660267360E0,1.041623125E1
1.075033933E1,-3.838169365E0,7.784805164E0,2.292610227E0,8.977237725E0
1.076032733E1,-3.531383209E0,7.381657771E0,1.984713977E0,8.420132326E0
1.077031533E1,-3.457265657E0,7.996038169E0,1.559873414E0,8.850000977E0
1.078030333E1,-2.739434566E0,6.017087792E0,1.209287812E0,6.721028512E0
1.079029133E1,-1.730319750E0,3.257403733E0,1.293806391E0,3.908787599E0
1.080028058E1,-1.286295350E0,9.361339635E-1,1.923523450E0,2.496166058E0
1.081026858E1,-9.998797238E-1,-1.092332389E0,2.514747119E0,2.918373277E0
1.082025658E1,1.085360169E-2,-3.811771232E0,2.538751109E0,4.579844421E0
1.083024458E1,1.105462604E0,-6.672290525E0,2.266011243E0,7.132763516E0
1.084023258E1,1.847114667E0,-8.100436696E0,2.322261457E0,8.626807378E0
1.085022158E1,2.513994582E0,-8.829607292E0,2.263288779E0,9.455401091E0
1.086020958E1,3.297698066E0,-9.408855278E0,2.020816441E0,1.017276114E1
1.087019758E1,3.944902977E0,-9.585134212E0,1.771610448E0,1.051549623E1
1.088018558E1,4.334998508E0,-9.587242718E0,1.585477202E0,1.064054383E1
1.089017358E1,4.564578613E0,-9.565958269E0,1.415422629E0,1.069328559E1
1.090016258E1,4.878906800E0,-9.490922704E0,1.413964334E0,1.076478706E1
1.091015058E1,5.143014421E0,-9.418343555E0,1.549905081E0,1.084241663E1
1.092013858E1,5.627395427E0,-9.527293555E0,1.741548743E0,1.120133447E1
1.093012658E1,5.687060416E0,-9.833704612E0,1.890634031E0,1.151602794E1
1.094011458E1,5.301455255E0,-1.021654053E1,1.706201155E0,1.163590352E1
1.095010358E1,4.894449284E0,-1.031714772E1,1.075707586E0,1.146980025E1
1.096009158E1,4.664552844E0,-1.041780053E1,1.969038177E-1,1.141610232E1
1.097007958E1,4.857715029E0,-1.115660675E1,-3.323639238E-1,1.217282774E1
1.098006758E1,4.987838674E0,-1.205731419E1,-6.208936107E-1,1.306303444E1
1.099005558E1,4.227125565E0,-1.211794747E1,-7.856880283E-1,1.285809267E1
1.100004458E1,4.605776048E0,-1.303630415E1,-9.788683391E-1,1.386061261E1
1.101003258E1,4.568099806E0,-1.388221850E1,-1.316385999E0,1.467366343E1
1.102002058E1,3.603496919E0,-1.385526985E1,-1.799529734E0,1.442885997E1
1.103000858E1,2.501833543E0,-1.382701727E1,-2.797670496E0,1.432733534E1
1.103999658E1,1.110729484E0,-1.336727760E1,-3.118349344E0,1.377105418E1
1.104998558E1,1.861206749E-1,-1.263834031E1,-2.689166054E0,1.292261200E1
1.105997358E1,-2.924595640E-1,-1.184638407E1,-1.838424243E0,1.199175349E1
1.106996158E1,-4.125235493E-1,-1.113799857E1,-1.032641673E0,1.119337021E1
1.107994958E1,-3.211914661E-1,-1.063362242E1,-4.454443967E-1,1.064779369E1
1.108993758E1,-3.472079578E-1,-1.024320150E1,-5.262960037E-2,1.024921949E1
1.109992658E1,-5.147311613E-1,-9.956369841E0,1.793984052E-1,9.971280378E0
1.110991458E1,-7.149625198E-1,-9.877341213E0,3.631822586E-1,9.909840675E0
1.111990258E1,-8.315587042E-1,-9.836677337E0,4.972472191E-1,9.884278714E0
1.112989058E1,-8.896349312E-1,-9.807108552E0,6.202024698E-1,9.866888038E0
1.113987858E1,-9.035502081E-1,-9.803075143E0,6.864666259E-1,9.868531890E0
1.114986758E1,-9.444851761E-1,-9.732568247E0,7.457936454E-1,9.806688793E0
1.115985558E1,-9.981898785E-1,-9.672839524E0,7.978595924E-1,9.756884104E0
1.116984358E1,-1.166156922E0,-9.590468042E0,9.272058499E-1,9.705498953E0
1.117983158E1,-1.409478934E0,-9.551262462E0,1.082456442E0,9.715192094E0
1.118981958E1,-1.559846078E0,-9.565730812E0,1.207791510E0,9.767040805E0
1.119980858E1,-1.702661105E0,-9.629329222E0,1.299804465E0,9.864711235E0
1.120979658E1,-1.718066764E0,-9.741847778E0,1.238868291E0,9.969460676E0
1.121978458E1,-1.814220571E0,-9.885709748E0,1.220754787E0,1.012466769E1
1.122977258E1,-1.847874220E0,-1.003412495E1,1.162999499E0,1.026892742E1
1.123976158E1,-1.772734722E0,-1.018998950E1,1.009609491E0,1.039219831E1
1.124974958E1,-1.670255982E0,-1.030765419E1,8.185949886E-1,1.047413899E1
1.125973758E1,-1.553095322E0,-1.038445035E1,6.098260009E-1,1.051764241E1
1.126972558E1,-1.428455488E0,-1.035685967E1,3.599194392E-1,1.046109791E1
1.127971358E1,-1.373034993E0,-1.021761642E1,1.324885511E-1,1.031030861E1
1.128970158E1,-1.334123527E0,-9.759181264E0,-1.081115091E-1,9.850542758E0
1.129969058E1,-1.292972285E0,-9.498612378E0,-2.627364492E-1,9.589809428E0
1.130967858E1,-1.316075512E0,-9.473978643E0,-3.394752709E-1,9.570975370E0
1.131966658E1,-1.402763992E0,-9.356139706E0,-3.490869971E-1,9.467151564E0
1.132965458E1,-1.416609614E0,-9.195762275E0,-2.324852943E-1,9.307141131E0
1.133964358E1,-1.379229680E0,-8.824900868E0,2.834616859E-2,8.932074414E0
1.134963158E1,-1.212896202E0,-7.081901430E0,5.418825610E-1,7.205420305E0
1.135961958E1,1.174795452E0,2.421433509E1,-2.117031022E-1,2.424374118E1
1.136960758E1,4.021047758E0,8.284349170E1,4.709657974E0,8.307462802E1
1.137959558E1,-1.104492990E0,7.833039080E1,1.759753581E1,8.029036863E1
1.138958358E1,-1.639360230E1,4.995582726E1,1.907057340E1,5.592871931E1
1.139957258E1,-2.363656704E1,2.738414344E1,1.117755381E1,3.786180559E1
1.140956058E1,-2.479911279E1,1.419169291E1,2.490993390E0,2.868109466E1
1.141954858E1,-3.364751479E1,1.712855404E1,-5.314301587E0,3.812852497E1
1.142953658E1,-3.373309464E1,1.531186038E1,-7.219770005E0,3.774254656E1
1.143952458E1,-2.504012333E1,1.226210941E1,-7.021371639E0,2.875181321E1
1.144951358E1,-1.867004146E1,1.796821420E1,-5.932006127E0,2.658224721E1
1.145950158E1,-1.428571146E1,2.411578144E1,-3.719485213E0,2.827520180E1
1.146948958E1,-1.035419101E1,2.941466392E1,-1.665822623E0,3.122829951E1
1.147947758E1,-7.684979745E0,3.373136152E1,6.063382099E-1,3.460103047E1
1.148946558E1,-4.975495201E0,3.248363119E1,-8.845719002E-2,3.286258773E1
1.149945458E1,-2.313130738E0,2.570697956E1,-3.557887468E0,2.605490233E1
1.150944258E1,-2.088015859E-1,1.830234749E1,-4.835307037E0,1.893144781E1
1.151943058E1,1.011714781E0,1.244844146E1,-4.940221873E0,1.343104812E1
1.152941858E1,2.128087705E0,7.795977439E0,-5.677362224E0,9.876156304E0
1.153940658E1,3.107138769E0,3.871362546E0,-6.702560391E0,8.340627980E0
1.154939558E1,5.270954424E0,-1.064218976E0,-1.489735595E1,1.583814183E1
1.155938358E1,6.678034830E0,-4.924210442E0,-1.687738338E1,1.880664955E1
1.156937158E1,5.501377405E0,-2.851880032E0,-1.827433231E0,6.460486459E0
1.157935958E1,5.365174118E0,-2.797441869E0,1.688494763E0,6.281861897E0
1.158934758E1,4.776715305E0,-4.765057418E0,2.019853404E0,7.042910554E0
1.159933658E1,3.792031325E0,-7.044531291E0,1.879003919E0,8.218003310E0
1.160932458E1,2.865123683E0,-8.979090191E0,1.187545525E0,9.499645190E0
1.161931258E1,1.945400953E0,-1.028775260E1,3.796959651E-1,1.047695602E1
1.162930058E1,1.265864301E0,-1.102553907E1,-2.455795491E-1,1.110068617E1
1.163928858E1,8.756049757E-1,-1.123787837E1,-4.955613937E-1,1.128282657E1
1.164927758E1,7.560705654E-1,-1.119997321E1,-3.179522914E-1,1.122996599E1
1.165926558E1,6.944208857E-1,-1.115143079E1,-2.370982359E-1,1.117554673E1
1.166925358E1,6.856414376E-1,-1.116239549E1,-3.389771247E-1,1.118856929E1
1.167924158E1,6.859451274E-1,-1.126482935E1,-5.011460694E-1,1.129681586E1
1.168922958E1,6.462924537E-1,-1.130454832E1,-7.611631248E-1,1.134856273E1
1.169921858E1,5.363899059E-1,-1.131031835E1,-1.008603258E0,1.136786242E1
1.170920658E1,3.910407694E-1,-1.126905572E1,-1.147017377E0,1.133402747E1
1.171919458E1,2.804960329E-1,-1.125035516E1,-1.198467540E0,1.131748619E1
1.172918258E1,1.907654472E-1,-1.120603209E1,-1.174603956E0,1.126903905E1
1.173917058E1,9.324607791E-2,-1.112501658E1,-1.064919034E0,1.117625793E1
1.174915958E1,6.456742203E-4,-1.104915597E1,-8.707001851E-1,1.108340954E1
1.175914758E1,-7.010303590E-2,-1.090511800E1,-7.103659505E-1,1.092845519E1
1.176913558E1,-1.237343831E-1,-1.084963728E1,-6.350609757E-1,1.086891171E1
1.177912358E1,-1.453987465E-1,-1.086982421E1,-5.871963993E-1,1.088664405E1
1.178911158E1,-1.608105634E-1,-1.081544276E1,-6.061336304E-1,1.083360790E1
1.179910033E1,-1.514514004E-1,-1.082236470E1,-6.945563950E-1,1.084568687E1
1.180908833E1,-1.454704662E-1,-1.076418023E1,-9.490696125E-1,1.080691772E1
1.181907633E1,-1.450405863E-1,-1.081940016E1,-1.228764303E0,1.088991820E1
1.182906433E1,-1.802213459E-1,-1.085258428E1,-1.644230610E0,1.097791235E1
1.183905233E1,-1.974556852E-1,-1.091933492E1,-2.081683032E0,1.111774564E1
1.184904133E1,-2.906866517E-1,-1.096820244E1,-2.406342518E0,1.123282902E1
1.185902933E1,-4.228791144E-1,-1.103076999E1,-2.698640882E0,1.136395072E1
1.186901733E1,-6.506869286E-1,-1.110144645E1,-3.012150166E0,1.152122196E1
1.187900533E1,-9.248402126E-1,-1.116357663E1,-3.290948332E0,1.167523505E1
1.188899333E1,-1.168818136E0,-1.114519649E1,-3.396420116E0,1.170970581E1
1.189898233E1,-1.335667485E0,-1.105275552E1,-3.273214020E0,1.160436738E1
1.190897033E1,-1.435262232E0,-1.090661021E1,-3.048661643E0,1.141527318E1
1.191895833E1,-1.531821689E0,-1.071734987E1,-2.894285794E0,1.120646939E1
1.192894633E1,-1.633932932E0,-1.052996182E1,-2.849711884E0,1.103044380E1
1.193893433E1,-1.711220113E0,-1.036271975E1,-2.827373766E0,1.087696085E1
1.194892333E1,-1.760450306E0,-1.018210043E1,-2.883412019E0,1.072792708E1
1.195891133E1,-1.787136122E0,-1.006875099E1,-2.999867797E0,1.065705441E1
1.196889933E1,-1.817608447E0,-9.941723735E0,-3.053904549E0,1.055783616E1
1.197888733E1,-1.853913809E0,-9.839491017E0,-3.088148182E0,1.047803603E1
1.198887533E1,-1.886960664E0,-9.809969010E0,-3.088484982E0,1.045633071E1
1.199886433E1,-1.927721605E0,-9.828959012E0,-3.098753862E0,1.048459925E1
1.200885233E1,-1.979208823E0,-9.863413146E0,-3.143869809E0,1.053983415E1
1.201884033E1,-2.020081884E0,-9.946006236E0,-3.146598704E0,1.062566959E1
1.202882833E1,-2.037829061E0,-1.000675179E1,-3.208727709E0,1.070438051E1
1.203881633E1,-2.073216264E0,-1.010050605E1,-3.316109194E0,1.083120622E1
1.204880533E1,-2.127791543E0,-1.013445264E1,-3.432255654E0,1.090939989E1
1.205879333E1,-2.217644098E0,-1.011783953E1,-3.530848773E0,1.094328631E1
1.206878133E1,-2.390021770E0,-9.933699017E0,-3.507318993E0,1.080240097E1
1.207876933E1,-2.436927549E0,-9.665886599E0,-3.296997569E0,1.049943678E1
1.208875733E1,-2.350229128E0,-9.319916205E0,-2.956838138E0,1.005620738E1
1.209874633E1,-2.122959550E0,-9.046898012E0,-2.718173798E0,9.682034377E0
1.210873433E1,-1.978672341E0,-8.940490966E0,-2.644914618E0,9.531164477E0
1.211872233E1,-1.912151346E0,-8.823911519E0,-2.757636949E0,9.440460731E0
1.212871033E1,-1.890684025E0,-8.651449648E0,-2.710127737E0,9.261050666E0
1.213869833E1,-1.796951258E0,-8.437369049E0,-2.729341103E0,9.048067924E0
1.214868733E1,-1.711639358E0,-8.123010457E0,-2.647781508E0,8.713423844E0
1.215867533E1,-1.567390010E0,-7.539154279E0,-2.275263877E0,8.029469746E0
1.216866333E1,-8.488702632E-1,-5.633106403E0,-8.059503847E-1,5.753435886E0
1.217865133E1,7.138899504E0,1.532161588E1,7.921187961E-1,1.692167992E1
1.218863933E1,3.091532843E1,7.843077112E1,1.221087142E1,8.518361798E1
1.219862833E1,2.595245035E1,7.153442465E1,2.529995020E1,8.019221327E1
1.220861633E1,9.849907247E0,3.610281444E1,2.006426911E1,4.246185085E1
1.221860433E1,7.948509661E0,1.832708706E1,1.454528807E1,2.471085452E1
1.222859233E1,8.584283266E0,3.805670832E0,1.411686726E1,1.695461562E1
1.223858033E1,8.301889063E0,-2.628651465E0,1.174614174E1,1.462200453E1
1.224856933E1,7.810655705E0,-4.283645044E0,5.031252496E0,1.023080931E1
1.225855733E1,7.031951006E0,-2.931217977E0,-1.536412631E0,7.771804009E0
1.226854533E1,6.796325757E0,7.751338041E-1,-5.444086386E0,8.742365400E0
1.227853333E1,6.626292819E0,4.873546073E0,-6.902089024E0,1.073769252E1
1.228852133E1,6.554446911E0,7.754656920E0,-7.040048815E0,1.235547513E1
1.229851033E1,6.457235196E0,7.841809085E0,-5.499089974E0,1.155118378E1
1.230849833E1,5.869488866E0,5.771467313E0,-1.462751162E0,8.360644440E0
1.231848633E1,4.572274134E0,3.724700344E0,4.115901875E0,7.191643182E0
1.232847433E1,4.220859689E0,3.554769732E0,9.919111383E0,1.135080680E1
1.233846233E1,5.855559629E0,4.464266705E0,1.292457438E1,1.487487407E1
1.234845133E1,8.216208057E0,6.264657149E0,1.162493364E1,1.555284817E1
1.235843933E1,9.985289000E0,7.931235232E0,6.287909186E0,1.421788629E1
1.236842733E1,1.140946608E1,7.870335896E0,3.798036708E0,1.437161042E1
1.237841533E1,1.127952458E1,8.082988604E0,4.692095861E0,1.464848603E1
1.238840333E1,9.612485148E0,8.014277388E0,6.922788752E0,1.430222070E1
1.239839233E1,8.218721191E0,7.507654159E0,8.134606655E0,1.378709811E1
1.240838033E1,7.418325076E0,7.924147822E0,8.225325621E0,1.361909128E1
1.241836833E1,6.859555793E0,8.213251120E0,8.233133993E0,1.350168489E1
1.242835633E1,6.613212597E0,7.811481332E0,8.210853177E0,1.312143023E1
1.243834433E1,6.760295799E0,7.074831562E0,7.971020856E0,1.262109403E1
1.244833333E1,6.938913034E0,6.401632853E0,7.254368564E0,1.190610266E1
1.245832133E1,6.862293459E0,5.737238297E0,6.173469821E0,1.086824293E1
1.246830933E1,6.568860297E0,5.085067345E0,5.028352861E0,9.710415439E0
1.247829733E1,6.137219422E0,4.576194107E0,3.827213729E0,8.558888927E0
1.248828533E1,5.772729142E0,4.218595355E0,2.888309355E0,7.711243702E0
1.249827433E1,5.333781002E0,4.052850180E0,2.197510527E0,7.050096940E0
1.250826233E1,4.767683111E0,3.958875484E0,1.512812684E0,6.379035942E0
1.251825033E1,4.309488275E0,4.159408668E0,1.605738974E0,6.200868271E0
1.252823833E1,4.009450976E0,4.541316635E0,2.276201770E0,6.471502793E0
1.253822633E1,3.592565842E0,4.906724929E0,2.736458918E0,6.668634513E0
1.254821433E1,2.918728909E0,4.848287271E0,3.052612606E0,6.429876486E0
1.255820333E1,2.379309671E0,4.767953544E0,2.757565905E0,5.999888768E0
1.256819133E1,2.406597164E0,5.005532933E0,2.682989640E0,6.168103701E0
1.257817933E1,2.477653552E0,5.979373251E0,2.545052653E0,6.954779983E0
1.258816733E1,2.700775115E0,6.221821032E0,2.079349993E0,7.094289222E0
1.259815533E1,2.844955467E0,7.245406537E0,2.325540868E0,8.123904715E0
1.260814433E1,3.182751746E0,9.917015741E0,2.643197291E0,1.074539910E1
1.261813233E1,4.032435211E0,1.332534371E1,2.087180876E0,1.407770019E1
1.262812033E1,4.203320673E0,1.528372943E1,1.091457938E0,1.588872463E1
1.263810833E1,4.018127074E0,1.414076366E1,-4.727460699E-1,1.470816205E1
1.264809633E1,3.568025955E0,1.198856262E1,-1.581026155E0,1.260777882E1
1.265808533E1,3.088434404E0,9.997509681E0,-1.756561469E0,1.061009590E1
1.266807333E1,3.125735839E0,7.649128127E0,-1.452070784E0,8.389749412E0
1.267806133E1,3.559911481E0,5.198957072E0,-1.137700205E0,6.402849846E0
1.268804933E1,4.554907903E0,4.847741141E0,-3.127424222E-1,6.659248306E0
1.269803733E1,5.664393684E0,6.192049933E0,6.267336635E-1,8.415440171E0
1.270802633E1,5.370704414E0,3.702506068E0,5.424643224E-1,6.545783729E0
1.271801433E1,3.723441439E0,8.242808211E-1,1.187820929E-1,3.815437616E0
1.272800233E1,1.942425159E0,-8.185195595E-1,-1.817702003E-1,2.115663058E0
1.273799033E1,1.545380359E-1,-2.769040189E0,-6.487265034E-1,2.848212009E0
1.274797833E1,-1.194033304E0,-5.645066298E0,-8.707972489E-1,5.835304352E0
1.275796733E1,-1.850289705E0,-8.289340938E0,-2.394943517E-1,8.496711288E0
1.276795533E1,-2.469701339E0,-9.597823255E0,1.544009918E0,1.003003502E1
1.277794333E1,-3.501654795E0,-1.076253716E1,4.131154338E0,1.204824587E1
1.278793133E1,-3.638018003E0,-1.158987023E1,5.817943321E0,1.346880586E1
1.279791946E1,-3.466984314E0,-1.197372356E1,7.208311216E0,1.439964537E1
1.280790846E1,-3.056226770E0,-1.227644678E1,7.513286782E0,1.471397791E1
1.281789646E1,-2.097422713E0,-1.225398178E1,5.491764582E0,1.359112687E1
1.282788446E1,-1.204792838E0,-1.197180684E1,3.004459031E0,1.240171194E1
1.283787246E1,-4.079118504E-1,-1.164634614E1,1.064435323E0,1.170199953E1
1.284786046E1,3.179014206E-1,-1.174737316E1,-3.429205235E-1,1.175667606E1
1.285784946E1,1.012366891E0,-1.253209056E1,-4.258652290E0,1.327457343E1
1.286783746E1,1.432945565E0,-1.458415569E1,-1.192210785E1,1.889146859E1
1.287782546E1,1.925631225E0,-1.385110897E1,-6.977698785E0,1.562848539E1
1.288781346E1,2.457516911E0,-1.260846221E1,-1.346444780E0,1.291609934E1
1.289780146E1,2.951823273E0,-1.271949265E1,-1.023259231E0,1.309754990E1
1.290779046E1,3.518152714E0,-1.269606870E1,-6.249971867E-2,1.317465238E1
1.291777846E1,4.374505805E0,-1.343237816E1,6.728150585E-1,1.414276367E1
1.292776646E1,5.772454323E0,-1.546254079E1,1.272178710E0,1.655384654E1
1.293775446E1,7.000438607E0,-1.784454676E1,1.804243174E0,1.925329279E1
1.294774246E1,7.794018037E0,-1.691661469E1,2.082902176E0,1.874185293E1
1.295773146E1,7.046223475E0,-1.261484971E1,1.654586028E0,1.454377370E1
1.296771946E1,5.505111437E0,-9.524967533E0,8.504425064E-1,1.103424265E1
1.297770746E1,4.553453993E0,-8.572348514E0,6.628403664E-3,9.706654740E0
1.298769546E1,4.105145338E0,-8.281123846E0,-6.450618341E-1,9.265275773E0
1.299768346E1,3.691388757E0,-8.275846733E0,-9.956346452E-1,9.116319348E0
1.300767246E1,3.338971807E0,-8.457168306E0,-1.156593874E0,9.165704440E0
1.301766046E1,3.147167054E0,-8.670357789E0,-1.192535466E0,9.300640058E0
1.302764846E1,3.052289255E0,-8.837531438E0,-1.194835761E0,9.425819016E0
1.303763646E1,2.937728560E0,-8.990077109E0,-1.222737724E0,9.536604377E0
1.304762446E1,2.845865293E0,-9.152548428E0,-1.230355330E0,9.663429320E0
1.305761346E1,2.774101539E0,-9.248417621E0,-1.250196102E0,9.736111038E0
1.306760146E1,2.652026586E0,-9.360010563E0,-1.326764222E0,9.818520563E0
1.307758946E1,2.528162971E0,-9.452475507E0,-1.485801471E0,9.896893817E0
1.308757746E1,2.436202348E0,-9.604718292E0,-1.643690912E0,1.004427275E1
1.309756546E1,2.587218679E0,-9.970751653E0,-1.761186032E0,1.045042417E1
1.310755446E1,2.765228097E0,-1.030312376E1,-1.740104481E0,1.080873764E1
1.311754246E1,2.825484239E0,-1.036407982E1,-1.519899509E0,1.084931363E1
1.312753046E1,2.860307039E0,-1.019729384E1,-1.209267932E0,1.065966636E1
1.313751846E1,2.932320470E0,-1.001009289E1,-9.423150551E-1,1.047322399E1
1.314750646E1,3.046769776E0,-9.878055743E0,-7.804079926E-1,1.036666909E1
1.315749546E1,3.152660805E0,-9.841462698E0,-7.280537778E-1,1.035971624E1
1.316748346E1,3.325286691E0,-9.894529688E0,-7.908442493E-1,1.046827034E1
1.317747146E1,3.500708131E0,-9.957379071E0,-9.203396107E-1,1.059487519E1
1.318745946E1,3.583241872E0,-1.001016306E1,-1.053534944E0,1.068423711E1
1.319744746E1,3.528289447E0,-1.011951885E1,-1.209408703E0,1.078499688E1
1.320743646E1,3.419446451E0,-1.013670616E1,-1.273161773E0,1.077341017E1
1.321742446E1,3.394043515E0,-1.012931177E1,-1.334670388E0,1.076586426E1
1.322741246E1,3.316012130E0,-1.013119223E1,-1.430540751E0,1.075562362E1
1.323740046E1,3.113074863E0,-1.006077538E1,-1.502947846E0,1.063810550E1
1.324738846E1,2.876498564E0,-9.907987640E0,-1.387484925E0,1.040997490E1
1.325737746E1,2.592613613E0,-9.547071762E0,-1.195542762E0,9.964815456E0
1.326736546E1,2.244131254E0,-8.952811634E0,-1.067640182E0,9.291330195E0
1.327735346E1,2.045657605E0,-8.423939749E0,-8.564200419E-1,8.710966147E0
1.328734146E1,1.899870586E0,-8.172821717E0,-4.379470968E-1,8.402161670E0
1.329732946E1,1.680049629E0,-8.056714725E0,-2.221292907E-1,8.233016479E0
1.330731846E1,1.501800622E0,-7.819531193E0,-2.753363219E-1,7.967200467E0
1.331730646E1,1.317228729E0,-7.453313060E0,-1.411172873E-1,7.570130857E0
1.332729446E1,1.169108377E0,-6.859975623E0,3.215266943E-1,6.966308876E0
1.333728246E1,1.073653313E0,-6.190185841E0,9.189279467E-1,6.349453579E0
1.334727046E1,8.641807589E-1,-5.797499701E0,2.161245511E0,6.247302884E0
1.335725946E1,4.568885672E-1,-3.272363250E0,3.913186218E0,5.121536369E0
1.336724746E1,4.174140874E-1,1.643854517E1,8.068136092E0,1.831651773E1
1.337723546E1,7.707059269E-1,6.904229924E1,1.335986918E1,7.032722927E1
1.338722346E1,-5.437111242E0,6.409228503E1,2.564068149E1,6.924469457E1
1.339721146E1,-1.121765168E1,3.152057606E1,2.930703305E1,4.447791150E1
1.340720046E1,-1.509480005E1,1.575424669E1,2.073777479E1,3.010157106E1
1.341718846E1,-1.184782833E1,9.029569203E0,1.185476196E1,1.903784487E1
1.342717646E1,-8.211645475E0,4.680967441E0,6.232855897E0,1.132214954E1
1.343716446E1,-5.331696469E0,1.564727772E0,1.783368030E0,5.835731468E0
1.344715246E1,-2.918635062E0,1.637578817E0,-1.946070313E0,3.871341456E0
1.345714146E1,-2.992002123E0,2.312563266E0,-6.906595473E0,7.874076872E0
1.346712946E1,-3.484800488E0,1.167158623E0,-8.629072938E0,9.379072100E0
1.347711746E1,-3.725940246E0,-2.358491975E-1,-6.119770746E0,7.168671394E0
1.348710546E1,-2.948622507E0,-8.538589615E-1,-3.553985621E0,4.696196717E0
1.349709346E1,-1.742621123E0,-3.238638264E-1,-2.424971309E0,3.003681408E0
1.350708146E1,-7.820627546E-1,1.140584782E0,-2.233610651E0,2.627084380E0
1.351707046E1,-1.349812192E-1,3.432541875E0,-2.550122774E-1,3.444647285E0
1.352705846E1,-1.957621488E-1,5.772678271E0,3.509641507E0,6.758677440E0
1.353704646E1,-4.072100383E-1,6.959109902E0,7.777611920E0,1.044443765E1
1.354703446E1,3.927548441E-1,7.423412154E0,1.115170093E1,1.340230346E1
1.355702246E1,1.038519587E0,8.479146236E0,1.185614658E1,1.461309876E1
1.356701146E1,1.674865049E0,9.738024868E0,9.278326129E0,1.355439549E1
1.357699946E1,2.928600764E0,1.066541724E1,7.272620063E0,1.323702497E1
1.358698746E1,4.371769308E0,1.114660918E1,6.505706860E0,1.362657275E1
1.359697546E1,6.066572778E0,1.165380251E1,7.793659603E0,1.527597945E1
1.360696346E1,7.378907826E0,1.231448409E1,9.766845210E0,1.736335406E1
1.361695246E1,7.765505260E0,1.264016464E1,1.086326714E1,1.838715332E1
1.362694046E1,6.663471755E0,1.263139616E1,1.095632090E1,1.799986090E1
1.363692846E1,4.697021264E0,1.256774571E1,1.059710539E1,1.709704313E1
1.364691646E1,2.821871536E0,1.183899786E1,1.010627140E1,1.581965711E1
1.365690446E1,1.589592765E0,1.057172614E1,9.598934811E0,1.436759368E1
1.366689346E1,8.646505827E-1,9.129199326E0,8.725395291E0,1.265789967E1
1.367688146E1,6.739722955E-1,7.674862307E0,7.504472104E0,1.075522439E1
1.368686946E1,8.319001816E-1,6.562725983E0,6.151181989E0,9.033187151E0
1.369685746E1,1.147109910E0,6.078547876E0,4.823490983E0,7.844148819E0
1.370684546E1,1.548526892E0,5.904910129E0,3.656087362E0,7.115678040E0
1.371683446E1,1.918452452E0,5.787648312E0,2.523314459E0,6.598821763E0
1.372682246E1,2.161158972E0,5.627857942E0,1.817715744E0,6.296624782E0
1.373681046E1,2.226141272E0,5.332315689E0,1.427628107E0,5.952093546E0
1.374679846E1,2.208712769E0,5.144657489E0,1.011053753E0,5.689300701E0
1.375678646E1,2.176698386E0,4.692869448E0,6.025052869E-1,5.208075666E0
1.376677546E1,1.939946525E0,4.076934861E0,4.832513237E-1,4.540740272E0
1.377676346E1,1.582671123E0,3.218185288E0,4.461998570E-1,3.613953340E0
1.378675146E1,1.252614511E0,2.342281739E0,2.131111300E-1,2.664721976E0
1.379673946E1,8.980079247E-1,1.609145561E0,-7.922392488E-2,1.844463093E0
1.380672746E1,3.971899572E-1,1.693298104E0,2.202266067E-1,1.753145200E0
1.381671546E1,2.609445700E-1,2.148416719E0,2.897114092E-1,2.183510744E0
1.382670446E1,1.009010151E-1,3.108014390E0,6.098099211E-1,3.168880339E0
1.383669246E1,-4.824505475E-1,4.163321040E0,8.107231745E-1,4.268872530E0
1.384668046E1,-1.292220626E0,5.265520606E0,1.222899253E0,5.557969412E0
1.385666846E1,-2.683815559E0,6.476188946E0,2.073747483E0,7.310562074E0
1.386665646E1,-4.502996030E0,7.250229321E0,2.714651143E0,8.956122446E0
1.387664546E1,-5.960620646E0,7.626222244E0,3.307528405E0,1.022878333E1
1.388663346E1,-6.590792618E0,7.463663802E0,4.034323569E0,1.074339757E1
1.389662146E1,-7.408402936E0,6.712042236E0,5.455632883E0,1.138858530E1
1.390660946E1,-7.874940578E0,5.443369517E0,6.401564441E0,1.151629229E1
1.391659746E1,-7.332791421E0,4.455559616E0,6.438951538E0,1.072762501E1
1.392658646E1,-5.517067823E0,3.638042854E0,5.793888461E0,8.788773332E0
1.393657446E1,-3.448677852E0,3.129722178E0,4.442267141E0,6.436014076E0
1.394656246E1,-1.644746919E0,2.294903505E0,2.601589966E0,3.839276608E0
1.395655046E1,-2.433008891E-1,8.102141744E-1,1.107319388E0,1.393484323E0
1.396653846E1,-5.442366135E-1,-5.767254978E-1,-1.664190665E-2,7.931473661E-1
1.397652746E1,-4.531299770E-2,-1.637630273E0,-2.929240157E-1,1.664238762E0
1.398651546E1,8.090564257E-1,-2.972760106E0,-1.996569791E-1,3.087351269E0
1.399650346E1,1.753683470E0,-4.992567317E0,-3.616252913E-1,5.303952015E0
1.400649146E1,2.798282699E0,-6.817856374E0,-7.443745261E-1,7.407269743E0
1.401647946E1,3.948169817E0,-8.182902317E0,-9.858399743E-1,9.138917643E0
1.402646846E1,4.989269487E0,-8.938185409E0,-5.365459169E-1,1.025045608E1
1.403645646E1,5.763910956E0,-9.174631022E0,6.680619299E-2,1.083517360E1
1.404644446E1,6.196928265E0,-9.037478732E0,3.178042106E-1,1.096261562E1
1.405643246E1,6.561405682E0,-8.914605342E0,4.196784948E-1,1.107692931E1
1.406642046E1,6.869650426E0,-8.965970793E0,6.076373881E-1,1.131149647E1
1.407640946E1,7.361311800E0,-9.132326417E0,6.276423208E-1,1.174658385E1
1.408639746E1,7.921811274E0,-9.197191334E0,5.481723013E-1,1.215088125E1
1.409638546E1,8.285824422E0,-9.282177690E0,4.895615657E-1,1.245204319E1
1.410637346E1,8.539243918E0,-9.353102077E0,5.254343069E-1,1.267577557E1
1.411636146E1,8.669605252E0,-9.326438189E0,5.026968241E-1,1.274351634E1
1.412635046E1,8.503945447E0,-9.483716011E0,6.358646755E-1,1.275391240E1
1.413633846E1,8.150376595E0,-9.693991241E0,7.557361047E-1,1.268752308E1
1.414632646E1,7.747347316E0,-9.946925418E0,1.003814242E0,1.264793891E1
1.415631446E1,7.236669627E0,-1.022615569E1,1.172910968E0,1.258250244E1
1.416630246E1,6.619507710E0,-1.029683216E1,1.178928484E0,1.229766267E1
1.417629146E1,6.221453242E0,-1.035690528E1,8.750622810E-1,1.211353381E1
1.418627946E1,5.827729222E0,-1.037270212E1,4.381442942E-1,1.190576951E1
1.419626746E1,5.444743028E0,-1.026553786E1,5.954862893E-2,1.162024269E1
1.420625546E1,5.185440649E0,-1.017430960E1,-2.620657736E-1,1.142252376E1
1.421624346E1,5.269218385E0,-1.037567484E1,-4.822315693E-1,1.164696691E1
1.422623246E1,5.222686828E0,-1.039404095E1,-6.415664417E-1,1.165007092E1
1.423622046E1,5.072877070E0,-1.033532789E1,-7.890870148E-1,1.154017949E1
1.424620846E1,4.827527024E0,-1.021620607E1,-9.334727494E-1,1.133786819E1
1.425619646E1,4.590456635E0,-1.019369663E1,-1.087363425E0,1.123236851E1
1.426618446E1,4.343964044E0,-1.022865129E1,-1.199579168E0,1.117740224E1
1.427617346E1,4.143772044E0,-1.022642116E1,-1.259672685E0,1.110573328E1
1.428616146E1,3.936010532E0,-1.027100384E1,-1.368061498E0,1.108410082E1
1.429614946E1,3.743987385E0,-1.032532447E1,-1.512733746E0,1.108684492E1
1.430613746E1,3.563981144E0,-1.040411921E1,-1.719328739E0,1.113120611E1
1.431612546E1,3.369446618E0,-1.048793437E1,-1.920533769E0,1.118205651E1
1.432611446E1,3.161394499E0,-1.054815952E1,-2.100661924E0,1.121030173E1
1.433610246E1,2.994131971E0,-1.057515962E1,-2.095595312E0,1.118884923E1
1.434609046E1,2.835768029E0,-1.050868146E1,-1.956849509E0,1.105907891E1
1.435607846E1,2.706641042E0,-1.043676305E1,-1.765344426E0,1.092558326E1
1.436606646E1,2.555757151E0,-1.040414260E1,-1.571369625E0,1.082807833E1
1.437605546E1,2.454779245E0,-1.036331032E1,-1.408876671E0,1.074286160E1
1.438604346E1,2.391744798E0,-1.033670549E1,-1.315110136E0,1.069099800E1
1.439603146E1,2.314898936E0,-1.028959564E1,-1.267671237E0,1.062268921E1
1.440601946E1,2.272748112E0,-1.025956201E1,-1.210745669E0,1.057780231E1
1.441600746E1,2.177838008E0,-1.024865578E1,-1.148128860E0,1.054021459E1
1.442599646E1,1.949764146E0,-1.015856305E1,-1.116655783E0,1.040408110E1
1.443598446E1,1.747188237E0,-9.983931277E0,-1.111047719E0,1.019637080E1
1.444597246E1,1.621090400E0,-9.706511300E0,-1.088253518E0,9.900938916E0
1.445596046E1,1.560173815E0,-9.525275681E0,-1.069490241E0,9.711273269E0
1.446594846E1,1.466523201E0,-9.432551120E0,-1.049456657E0,9.603388475E0
1.447593746E1,1.387525271E0,-9.288115538E0,-1.015728748E0,9.445952652E0
1.448592546E1,1.314900952E0,-9.018872307E0,-8.973499668E-1,9.158289096E0
1.449591346E1,1.274129341E0,-8.564951202E0,-5.717214507E-1,8.678056239E0
1.450590146E1,1.302584816E0,-8.025484747E0,-7.543609858E-2,8.130856242E0
1.451588946E1,1.431944375E0,-7.500203637E0,4.618850130E-1,7.649631171E0
1.452587846E1,1.645677942E0,-6.886286924E0,8.566501299E-1,7.131833771E0
1.453586646E1,1.995426368E0,-5.525169725E0,1.577503939E0,6.082577214E0
1.454585446E1,2.892922516E0,6.136381516E0,4.237815737E0,7.998953745E0
1.455584246E1,2.359662588E0,6.318237408E1,8.267605668E0,6.376467443E1
1.456583046E1,-9.175220568E-1,8.079231651E1,2.703196331E1,8.519957332E1
1.457581846E1,-3.692977153E0,3.876023829E1,2.230255753E1,4.487090622E1
1.458580746E1,-5.474898874E0,1.856142008E1,4.357652083E0,1.983658148E1
1.459579546E1,-5.925539691E0,1.184731494E1,-1.038294761E0,1.328717231E1
1.460578346E1,-4.472601911E0,9.801914470E0,-3.537323395E0,1.133994497E1
1.461577146E1,-2.868170375E0,7.010018100E0,-3.659067687E0,8.411630722E0
1.462575946E1,-1.368307520E0,4.109086946E0,-2.952878988E0,5.241789323E0
1.463574846E1,-4.655747522E-1,9.972812212E-1,-3.287216932E0,3.466572492E0
1.464573646E1,-1.145412536E-1,-1.016171236E0,-2.874542670E0,3.051019378E0
1.465572446E1,3.469505341E-1,-1.892861236E0,-2.992773955E0,3.558088571E0
1.466571246E1,9.114861953E-1,-1.176229994E0,-2.023229002E0,2.511529350E0
1.467570046E1,7.669836625E-1,2.474658608E-2,-4.148377311E-1,8.723340388E-1
1.468568946E1,-8.963284582E-2,1.611024857E0,1.087104979E0,1.945567365E0
1.469567746E1,-6.826267594E-1,3.474911385E0,2.338567003E0,4.243805374E0
1.470566546E1,-4.967288634E-1,5.022139025E0,3.501970544E0,6.142671866E0
1.471565346E1,3.068250400E-1,5.865518022E0,3.883180938E0,7.041131832E0
1.472564146E1,1.024361723E0,6.103363459E0,3.727915728E0,7.224798830E0
1.473563046E1,1.205876547E0,6.478334289E0,3.988669387E0,7.702755149E0
1.474561846E1,1.492369941E0,6.305076027E0,4.170058787E0,7.705228227E0
1.475560646E1,1.714988643E0,5.569482265E0,3.855890813E0,6.987718705E0
1.476559446E1,2.063428609E0,4.880620034E0,3.619492562E0,6.417080018E0
1.477558246E1,2.468467577E0,4.471040704E0,3.274607996E0,6.066843881E0
1.478557146E1,2.686678356E0,4.744450661E0,2.992347693E0,6.219501377E0
1.479555921E1,2.516906788E0,5.664120035E0,3.162995759E0,6.958564343E0
1.480554721E1,2.655823183E0,6.240643219E0,3.566221504E0,7.662699288E0
1.481553521E1,3.343315996E0,6.552141938E0,3.873600860E0,8.313429464E0
1.482552321E1,3.891986553E0,6.652633941E0,4.044800903E0,8.704338689E0
1.483551121E1,4.145298167E0,6.884100650E0,4.196006976E0,9.065363379E0
1.484550021E1,4.089124551E0,7.255638580E0,4.400254312E0,9.419525933E0
1.485548821E1,3.814627013E0,7.468033426E0,4.508696773E0,9.521094952E0
1.486547621E1,3.464014513E0,7.309605457E0,4.324478490E0,9.172286666E0
1.487546421E1,3.117097162E0,6.732672383E0,3.804321880E0,8.337747723E0
1.488545221E1,2.912993960E0,6.359179729E0,3.248485560E0,7.712156577E0
1.489544121E1,2.613039984E0,5.806022603E0,2.861760072E0,6.980511953E0
1.490542921E1,2.242684507E0,5.226607971E0,2.560430830E0,6.237216584E0
1.491541721E1,1.821215887E0,4.625766217E0,2.324891535E0,5.488138213E0
1.492540521E1,1.593901870E0,4.184933519E0,2.026656055E0,4.915437569E0
1.493539321E1,1.559034046E0,3.942178760E0,1.676477419E0,4.558720990E0
1.494538221E1,1.563697493E0,3.877564103E0,1.435716560E0,4.420626117E0
1.495537021E1,1.476584359E0,4.024400552E0,1.531866421E0,4.552220985E0
1.496535821E1,1.308683169E0,3.833115909E0,1.621781394E0,4.362981102E0
1.497534621E1,1.129793965E0,3.672149663E0,1.403353391E0,4.090295624E0
1.498533421E1,9.294029412E-1,3.660248240E0,1.322593403E0,4.001307326E0
1.499532321E1,2.572369236E-1,4.528577891E0,1.302550317E0,4.719197588E0
1.500531121E1,-4.077970988E-1,5.279877275E0,1.686113046E0,5.557551593E0
1.501529921E1,-7.566147950E-1,5.767104120E0,2.151204672E0,6.201583461E0
1.502528721E1,-1.042720519E0,6.337211155E0,2.295337368E0,6.820270151E0
1.503527521E1,-1.695710081E0,7.392606098E0,2.495802725E0,7.984678381E0
1.504526421E1,-2.510480406E0,8.282398539E0,2.257250944E0,8.944038196E0
1.505525221E1,-2.666809224E0,8.149754452E0,2.111362914E0,8.831094067E0
1.506524021E1,-2.510040695E0,7.168519160E0,1.933573644E0,7.837517354E0
1.507522821E1,-2.370208772E0,6.705033764E0,1.874478467E0,7.354524928E0
1.508521621E1,-2.187355521E0,6.804101384E0,2.040209608E0,7.432548356E0
1.509520521E1,-2.016842673E0,7.235581461E0,2.250525477E0,7.841311010E0
1.510519321E1,-1.817797897E0,7.855094544E0,2.555838135E0,8.458085366E0
1.511518121E1,-1.737219172E0,8.534676658E0,2.987296869E0,9.207745581E0
1.512516921E1,-1.631050693E0,8.855245578E0,3.453484555E0,9.643767738E0
1.513515721E1,-1.439744415E0,8.573490475E0,3.684253399E0,9.441997989E0
1.514514521E1,-8.564182878E-1,7.491232839E0,3.493728894E0,8.310124145E0
1.515513421E1,-3.017154506E-1,6.835919008E0,3.134158460E0,7.526205562E0
1.516512221E1,-5.594490221E-1,7.311556672E0,3.288569977E0,8.036574935E0
1.517511021E1,-2.280729854E-1,5.857584520E0,3.856533422E0,7.016848561E0
1.518509821E1,-8.651306391E-2,3.147602379E0,4.152306640E0,5.211193307E0
1.519508621E1,-6.318080235E-1,6.185026842E-1,3.550867885E0,3.659288140E0
1.520507521E1,-1.274828083E0,-1.463220693E0,2.293649716E0,3.004501699E0
1.521506321E1,-1.198262887E0,-3.535568646E0,1.159186383E0,3.908937537E0
1.522505121E1,-6.377461633E-1,-5.675171857E0,5.746044204E-2,5.711181793E0
1.523503921E1,2.489209405E-1,-7.707599698E0,-1.136821953E0,7.794961122E0
1.524502721E1,1.493446998E0,-9.164246952E0,-1.448772954E0,9.397486324E0
1.525501621E1,2.474563591E0,-9.722491155E0,-1.302748099E0,1.011669174E1
1.526500421E1,2.873075896E0,-9.821562284E0,-1.160285952E0,1.029873363E1
1.527499221E1,3.103464671E0,-9.713861834E0,-1.144594949E0,1.026161305E1
1.528498021E1,3.317090941E0,-9.637242259E0,-1.176975514E0,1.025986365E1
1.529496821E1,3.515994506E0,-9.606660737E0,-1.054182304E0,1.028403852E1
1.530495721E1,3.828011289E0,-9.601326907E0,-9.394760858E-1,1.037890958E1
1.531494521E1,4.122513907E0,-9.637349263E0,-8.914226443E-1,1.051989810E1
1.532493321E1,4.308428760E0,-9.800587152E0,-9.492931954E-1,1.074780091E1
1.533492121E1,4.342980542E0,-9.998280344E0,-9.211498886E-1,1.093963468E1
1.534490921E1,4.242588527E0,-1.023528437E1,-1.004210172E0,1.112515355E1
1.535489821E1,4.103088579E0,-1.057244652E1,-1.403937967E0,1.142729203E1
1.536488621E1,3.777376156E0,-1.067717366E1,-1.429254802E0,1.141548848E1
1.537487421E1,3.510305166E0,-1.084513025E1,-1.377467183E0,1.148200803E1
1.538486221E1,3.708705286E0,-1.162958568E1,-1.701134543E0,1.232459398E1
1.539485021E1,4.296879924E0,-1.336048548E1,-2.569866482E0,1.426779461E1
1.540483921E1,4.307964783E0,-1.474036054E1,-2.564999260E0,1.556971454E1
1.541482721E1,4.664217507E0,-1.706943518E1,-1.893314541E0,1.779621258E1
1.542481521E1,5.039582439E0,-1.975576065E1,-1.273445947E0,2.042814565E1
1.543480321E1,4.930151213E0,-2.026919998E1,-5.719863296E-1,2.086801445E1
1.544479121E1,4.152257524E0,-1.718303020E1,-1.692229526E-1,1.767841639E1
1.545477921E1,2.985339221E0,-1.284866700E1,-6.877079898E-1,1.320883932E1
1.546476821E1,2.263131635E0,-1.090632487E1,-1.315164954E0,1.121603075E1
1.547475621E1,1.890754338E0,-1.013131269E1,-1.751651562E0,1.045402946E1
1.548474421E1,1.606823194E0,-9.724993764E0,-1.917511927E0,1.004162519E1
1.549473221E1,1.393679465E0,-9.518975891E0,-1.802061724E0,9.787781716E0
1.550472021E1,1.230815214E0,-9.385189258E0,-1.567203337E0,9.594415553E0
1.551470921E1,1.098515089E0,-9.265248832E0,-1.473426862E0,9.445769319E0
1.552469721E1,1.040578537E0,-9.231454264E0,-1.571783754E0,9.421945430E0
1.553468521E1,9.598479313E-1,-9.224393751E0,-1.812624719E0,9.449674941E0
1.554467321E1,9.099021115E-1,-9.282292296E0,-2.085781930E0,9.557162674E0
1.555466121E1,8.249422874E-1,-9.341005942E0,-2.333382862E0,9.663311925E0
1.556465021E1,7.151515310E-1,-9.405549847E0,-2.483679693E0,9.754202913E0
1.557463821E1,5.673196667E-1,-9.448615760E0,-2.566504918E0,9.807402249E0
1.558462621E1,4.237878449E-1,-9.502983171E0,-2.621933014E0,9.867158559E0
1.559461421E1,3.227997793E-1,-9.555752538E0,-2.639246035E0,9.918781473E0
1.560460221E1,2.674051586E-1,-9.601930924E0,-2.666773556E0,9.968965051E0
1.561459121E1,1.494835931E-1,-9.693144565E0,-2.625790422E0,1.004361350E1
1.562457921E1,9.136223294E-2,-9.780069857E0,-2.394557747E0,1.006936047E1
1.563456721E1,8.910264954E-2,-9.884416344E0,-2.195670408E0,1.012573920E1
1.564455521E1,1.140509280E-1,-9.924960938E0,-2.230625063E0,1.017317774E1
1.565454321E1,1.363439311E-1,-9.868761009E0,-2.288363979E0,1.013151732E1
1.566453221E1,2.116899825E-1,-9.786228145E0,-2.315362328E0,1.005862698E1
1.567452021E1,2.875846672E-1,-9.695166532E0,-2.274689388E0,9.962588561E0
1.568450821E1,2.535118453E-1,-9.598043695E0,-2.201105395E0,9.850460699E0
1.569449621E1,2.281134774E-1,-9.461652128E0,-2.073143173E0,9.688798654E0
1.570448421E1,2.033234757E-1,-9.197734541E0,-1.912578047E0,9.396681111E0
1.571447321E1,1.366182934E-1,-8.930270033E0,-1.774164220E0,9.105824844E0
1.572446121E1,-2.448426537E-2,-8.681535326E0,-1.595448751E0,8.826953711E0
1.573444921E1,-4.042319052E-2,-8.382720387E0,-1.407341777E0,8.500132117E0
1.574443721E1,4.449011173E-2,-7.974922704E0,-1.266619177E0,8.075004374E0
1.575442521E1,5.011602489E-1,-6.714205121E0,-7.863443783E-1,6.778646582E0
1.576441421E1,1.287357497E0,-5.210498307E0,-7.744090417E-1,5.422756798E0
1.577440221E1,3.027750245E0,-2.134392173E0,-4.501195380E-1,3.731689844E0
1.578439021E1,9.072667860E0,8.584792559E0,1.256737967E0,1.255353957E1
1.579437821E1,1.711994810E1,2.316807409E1,2.389360011E0,2.890607758E1
1.580436600E1,2.022777831E1,3.373952891E1,5.524552844E0,3.972454544E1
1.581435400E1,1.184659691E1,2.928845762E1,1.224670901E1,3.388417757E1
1.582434300E1,2.138392984E0,1.852285067E1,1.802058654E1,2.593087467E1
1.583433100E1,-4.270487932E0,1.303979260E1,1.981004386E1,2.409794796E1
1.584431900E1,-7.695380772E0,1.094251212E1,1.426241615E1,1.955438496E1
1.585430700E1,-9.222519718E0,1.100977264E1,4.503652965E0,1.505167278E1
1.586429500E1,-1.013834923E1,1.028731523E1,-2.190016150E0,1.460859851E1
1.587428400E1,-9.580309090E0,8.577167789E0,-2.998500134E0,1.320383022E1
1.588427200E1,-7.763584449E0,7.019990526E0,-1.688078295E0,1.060203371E1
1.589426000E1,-6.011421255E0,6.333470106E0,1.503792769E-1,8.733421038E0
1.590424800E1,-5.222584502E0,5.566151106E0,5.473730600E-1,7.652257463E0
1.591423600E1,-4.663496545E0,4.820227652E0,6.984943485E-1,6.743195756E0
1.592422400E1,-4.228768048E0,6.407665426E0,3.340773919E0,8.372659421E0
1.593421300E1,-3.582112482E0,7.469484705E0,5.537370526E0,9.964296459E0
1.594420100E1,-1.898776571E0,8.780551491E0,8.423426363E0,1.231493194E1
1.595418900E1,-8.432585808E-2,1.039707682E1,1.096969465E1,1.511424884E1
1.596417700E1,1.280000676E0,1.211707858E1,1.074923591E1,1.624832507E1
1.597416500E1,1.833366109E0,1.359602419E1,8.982817791E0,1.639829627E1
1.598415400E1,2.097367896E0,1.339171312E1,6.995156232E0,1.525349609E1
1.599414200E1,1.970061439E0,1.278310802E1,6.333671250E0,1.440154103E1
1.600413000E1,9.392208548E-1,1.274508708E1,6.945028052E0,1.454485459E1
1.601411800E1,2.352230338E-1,1.278134917E1,7.884632923E0,1.501950908E1
1.602410600E1,-2.310842284E-1,1.294857252E1,8.437500612E0,1.545672497E1
1.603409500E1,-7.155966503E-1,1.339211891E1,8.699346530E0,1.598560470E1
1.604408300E1,-9.973758730E-1,1.395055608E1,9.053274985E0,1.666056906E1
1.605407100E1,-1.265148748E0,1.427411175E1,9.618279739E0,1.725868398E1
1.606405900E1,-1.599262598E0,1.418596030E1,9.425176027E0,1.710652079E1
1.607404700E1,-1.828331656E0,1.361719696E1,8.403177456E0,1.610541030E1
1.608403500E1,-1.672771015E0,1.264749939E1,6.999957966E0,1.455186638E1
1.609402400E1,-1.476854354E0,1.125856816E1,5.649305529E0,1.268270904E1
1.610401200E1,-1.352226507E0,9.635729000E0,4.507539609E0,1.072351170E1
1.611400000E1,-1.183443119E0,8.479622199E0,3.267966728E0,9.164285940E0
1.612398800E1,-1.187810989E0,7.888816021E0,2.667565854E0,8.411909459E0
1.613397600E1,-1.560935561E0,7.536375098E0,2.542743003E0,8.105492669E0
1.614396500E1,-1.918583430E0,7.221069256E0,2.586135775E0,7.906510091E0
1.615395300E1,-1.682923682E0,6.960189298E0,2.505650606E0,7.586484834E0
1.616394100E1,-2.110067756E0,6.341946230E0,2.879424218E0,7.277619923E0
1.617392900E1,-2.134447721E0,5.682632904E0,2.454061791E0,6.547564667E0
1.618391700E1,-2.123140960E0,5.318406333E0,2.282161837E0,6.164530486E0
1.619390600E1,-2.198558933E0,5.179385857E0,2.225673933E0,6.050894454E0
1.620389400E1,-2.074619011E0,5.048353847E0,1.781634623E0,5.741440807E0
1.621388200E1,-1.808944336E0,4.386097618E0,1.321536080E0,4.925097921E0
1.622387000E1,-1.088332894E0,3.209537256E0,1.401518974E0,3.667404167E0
1.623385800E1,-1.052183068E-1,2.522005268E0,1.915754985E0,3.168863933E0
1.624384600E1,1.212285095E0,1.798014720E0,2.256262619E0,3.129410981E0
1.625383500E1,-2.052020692E0,5.353479686E0,1.256553780E0,5.869366326E0
1.626382300E1,-1.020985483E1,1.567675003E1,-1.417522218E0,1.876195609E1
1.627381100E1,-6.475087915E0,1.541682141E1,-3.011424819E0,1.699040392E1
1.628379900E1,-1.656116245E0,9.443043948E0,-3.726086719E0,1.028579225E1
1.629378700E1,1.612814105E-1,5.198175884E0,-3.623134208E0,6.338307796E0
1.630377600E1,4.257685161E-1,2.873073850E0,-3.043935046E0,4.207299934E0
1.631376400E1,3.177891541E-1,8.242147475E-1,-2.198550308E0,2.369376153E0
1.632375200E1,-5.977830756E-1,-1.433941346E0,-1.430185094E0,2.111625391E0
1.633374000E1,-3.626419759E-1,-3.633438172E0,-1.426260443E0,3.920153186E0
1.634372800E1,1.192617985E0,-5.700654023E0,-1.864602812E0,6.115270852E0
1.635371700E1,2.864338694E0,-7.860133674E0,-2.676322060E0,8.783441085E0
1.636370500E1,4.226042368E0,-9.617577488E0,-3.432530181E0,1.105167382E1
1.637369300E1,5.476056038E0,-1.000102386E1,-2.907254333E0,1.176689405E1
1.638368100E1,6.743656962E0,-1.021796959E1,-1.705807784E0,1.236097051E1
1.639366900E1,7.880800658E0,-1.064309842E1,-6.980581462E-1,1.326159297E1
1.640365800E1,8.691076813E0,-1.091843679E1,-2.271647666E-1,1.395702984E1
1.641364600E1,9.323298234E0,-1.083312007E1,2.129181719E-1,1.429425460E1
1.642363400E1,9.988627760E0,-1.039154419E1,9.669382650E-1,1.444617059E1
1.643362200E1,1.110254924E1,-9.894127400E0,1.598089646E0,1.495708017E1
1.644361000E1,1.235233779E1,-8.840357983E0,1.942496495E0,1.531357146E1
1.645359900E1,1.358324334E1,-7.998299872E0,2.895633577E0,1.602691469E1
1.646358700E1,1.517091676E1,-7.811835088E0,3.533339687E0,1.742601424E1
1.647357500E1,1.563141774E1,-7.575439176E0,3.693918847E0,1.775875941E1
1.648356300E1,1.446289847E1,-7.473235109E0,4.032236990E0,1.677151186E1
1.649355100E1,1.168094996E1,-7.219094067E0,3.668587539E0,1.421331931E1
1.650353900E1,1.033437479E1,-6.884678940E0,2.907846072E0,1.275357500E1
1.651352800E1,9.726232204E0,-6.496573509E0,2.228597249E0,1.190679243E1
1.652351600E1,9.256199096E0,-6.188120604E0,1.310011364E0,1.121098515E1
