"Time (s)","Linear Acceleration x (m/s^2)","Linear Acceleration y (m/s^2)","Linear Acceleration z (m/s^2)","Absolute acceleration (m/s^2)"
5.102064400E-2,0.000000000E0,0.000000000E0,0.000000000E0,0.000000000E0
5.576236300E-2,-1.808595657E-2,4.741191864E-3,7.462501526E-3,2.013131030E-2
6.050413400E-2,-2.146244049E-2,3.713607788E-3,8.780002594E-3,2.348437098E-2
6.524590400E-2,-1.206398010E-2,6.101608276E-3,-3.459930420E-3,1.395494027E-2
6.998762300E-2,-1.940727234E-2,3.107070923E-3,7.392024994E-2,7.648855771E-2
7.472934200E-2,-4.443788528E-2,-1.328611374E-2,1.815185547E-1,1.873505595E-1
7.947111300E-2,-6.946086884E-2,-3.809690475E-2,2.770442963E-1,2.881487958E-1
8.421283100E-2,-8.474445343E-2,-5.676078796E-2,3.730025291E-1,3.866966462E-1
8.895460200E-2,-8.943367004E-2,-4.498195648E-2,4.710092545E-1,4.815303475E-1
9.369632100E-2,-8.698797226E-2,3.530025482E-3,5.413546562E-1,5.483103430E-1
9.843809200E-2,-6.937313080E-2,8.935785294E-2,5.404171944E-1,5.521306015E-1
1.031798110E-1,-2.867841721E-2,1.985487938E-1,4.461236000E-1,4.891526772E-1
1.079215810E-1,-1.360416412E-3,2.915534973E-1,2.808341980E-1,4.048124742E-1
1.126633000E-1,2.070808411E-2,3.951377869E-1,1.026453972E-1,4.087771678E-1
1.174050710E-1,7.193231583E-2,4.851088524E-1,-9.860038757E-2,5.002268417E-1
1.221467900E-1,1.196527481E-1,5.584044456E-1,-3.120727539E-1,6.507854553E-1
1.268885610E-1,1.402716637E-1,6.204638481E-1,-4.929895401E-1,8.047920310E-1
1.316302790E-1,1.659288406E-1,6.651339531E-1,-6.276378632E-1,9.294432973E-1
1.363719980E-1,1.808061600E-1,6.660056114E-1,-7.438454628E-1,1.014672565E0
1.411137690E-1,1.938271523E-1,6.066403389E-1,-8.433122635E-1,1.056767259E0
1.458554880E-1,1.794819832E-1,5.345983505E-1,-8.929581642E-1,1.056117163E0
1.505972590E-1,1.362776756E-1,4.653282166E-1,-8.902392387E-1,1.013719811E0
1.553389770E-1,1.942586899E-2,4.016957283E-1,-8.135147095E-1,9.074927025E-1
1.600807480E-1,-2.319626808E-1,3.645248413E-1,-6.409411430E-1,7.729751575E-1
1.648224670E-1,-4.226689339E-1,3.488678932E-1,-3.931188583E-1,6.744629503E-1
1.695642380E-1,-6.023488045E-1,3.502287865E-1,-1.223106384E-1,7.074207923E-1
1.743059560E-1,-7.702097893E-1,3.507871628E-1,1.348547935E-1,8.570067493E-1
1.790476750E-1,-9.133944511E-1,3.405241966E-1,3.591670990E-1,1.038868210E0
1.837894460E-1,-1.065224171E0,3.120636940E-1,5.667524338E-1,1.246312402E0
1.885311650E-1,-1.211253643E0,2.861700058E-1,7.662458420E-1,1.461561271E0
1.932729360E-1,-1.304718018E0,2.603831291E-1,9.448881149E-1,1.631840075E0
1.980146540E-1,-1.319076061E0,2.125039101E-1,1.019728661E0,1.680763549E0
2.027564250E-1,-1.267910004E0,1.515879631E-1,9.607357979E-1,1.597994982E0
2.074981440E-1,-1.187541962E0,8.867597580E-2,8.057646751E-1,1.437837283E0
2.122399150E-1,-1.125315189E0,3.428792953E-2,5.981764793E-1,1.274882362E0
2.169816340E-1,-1.060120106E0,-2.461290359E-2,3.426032066E-1,1.114377580E0
2.217233520E-1,-9.305481911E-1,-6.091737747E-2,7.671880722E-2,9.356904607E-1
2.264651230E-1,-7.413663864E-1,-8.333873749E-2,-1.786203384E-1,7.671210396E-1
2.312068420E-1,-4.625144005E-1,-7.039785385E-2,-3.796954155E-1,6.025313577E-1
2.359486130E-1,-2.623424530E-1,-1.272416115E-1,-6.761775017E-1,7.363626852E-1
2.406903310E-1,-1.747798920E-1,-2.935519218E-1,-1.046276093E0,1.100642723E0
2.454320500E-1,-1.152005196E-1,-5.313215256E-1,-1.400240898E0,1.502081321E0
2.501738210E-1,1.406097412E-2,-7.892746925E-1,-1.731704235E0,1.903142614E0
2.549155400E-1,3.405904770E-1,-1.047673225E0,-1.935088158E0,2.226698731E0
2.596573110E-1,1.096940041E0,-1.279856682E0,-2.073422432E0,2.672151036E0
2.643990290E-1,1.999268532E0,-1.685303450E0,-2.241361618E0,3.443983781E0
2.691408000E-1,2.775566101E0,-2.331570625E0,-2.534133434E0,4.422874747E0
2.738825190E-1,3.452859879E0,-3.057819366E0,-2.918052435E0,5.457795400E0
2.786242380E-1,4.070157051E0,-3.723120451E0,-3.284335613E0,6.419864853E0
2.833660090E-1,4.583302021E0,-4.238712788E0,-3.509784937E0,7.161838717E0
2.881077270E-1,4.896422863E0,-4.581037521E0,-3.591027021E0,7.606335300E0
2.928494980E-1,4.975293159E0,-4.736263752E0,-3.543893576E0,7.729483684E0
2.975912170E-1,4.809446335E0,-4.732813835E0,-3.448940992E0,7.577961125E0
3.023329360E-1,4.371904850E0,-4.602883816E0,-3.373077869E0,7.188723513E0
3.070747060E-1,3.600810051E0,-4.427093506E0,-3.367715597E0,6.626197875E0
3.118164250E-1,2.364684105E0,-4.180970669E0,-3.621718884E0,6.015737222E0
3.165581960E-1,7.253303528E-1,-3.719556093E0,-4.098696709E0,5.582160546E0
3.212999150E-1,-5.671548843E-1,-2.938258171E0,-4.484039783E0,5.390884763E0
3.260416860E-1,-1.226043701E0,-2.067037582E0,-4.480885983E0,5.084699275E0
3.307834040E-1,-1.351778030E0,-1.296232939E0,-3.646144390E0,4.099011172E0
3.355251230E-1,-1.271148682E0,-7.401485443E-1,-2.619268656E0,3.004031812E0
3.402668940E-1,-1.421831608E0,-4.901835918E-1,-2.143492460E0,2.618481430E0
3.450086130E-1,-1.528362751E0,-5.435187817E-1,-1.436276436E0,2.166609186E0
3.497503840E-1,-1.895297527E0,-9.473485947E-1,-1.395817995E0,2.537307619E0
3.544921020E-1,-2.310797215E0,-1.474810362E0,-1.624541759E0,3.186531861E0
3.592338210E-1,-2.501358032E0,-1.854857683E0,-1.801219940E0,3.597454976E0
3.639755920E-1,-2.491127968E0,-1.929947853E0,-1.889983177E0,3.674568502E0
3.687173110E-1,-2.437788963E0,-1.699271441E0,-1.926495790E0,3.541429724E0
3.734590290E-1,-2.361428261E0,-1.292998195E0,-1.853461981E0,3.268563764E0
3.782008000E-1,-2.057389259E0,-8.344280720E-1,-2.040616751E0,3.015499543E0
3.829425190E-1,-1.474422455E0,-5.935927629E-1,-1.381531954E0,2.105921291E0
3.876842900E-1,-7.871971130E-1,-6.558102369E-1,-6.349201202E-1,1.205358835E0
3.924260090E-1,-1.180453300E-1,-8.110578656E-1,-4.468488693E-2,8.208205044E-1
3.971677270E-1,5.314636230E-1,-8.034279346E-1,7.856979370E-1,1.243089408E0
4.019094980E-1,1.234615326E0,-5.436090231E-1,1.696351528E0,2.167347291E0
4.066512170E-1,1.826714516E0,-6.607067585E-2,2.677022934E0,3.241558737E0
4.113929880E-1,2.237948656E0,5.236248970E-1,3.720010281E0,4.372764996E0
4.161347060E-1,2.451885700E0,1.126309395E0,4.772665977E0,5.482577576E0
4.208764250E-1,2.471447706E0,1.715422630E0,5.789779663E0,6.524743452E0
4.256181960E-1,2.354312897E0,2.295749664E0,6.788115978E0,7.542663606E0
4.303599150E-1,2.091309786E0,2.827041388E0,7.831313610E0,8.584591574E0
4.351016860E-1,1.663367271E0,3.281369686E0,8.939146042E0,9.666566591E0
4.398434040E-1,1.166141510E0,3.671626806E0,1.008995056E1,1.080036258E1
4.445851230E-1,8.532738686E-1,4.053094864E0,1.108370209E1,1.183233308E1
4.493268940E-1,6.568717957E-1,4.403398037E0,1.186842251E1,1.267599494E1
4.540686130E-1,4.842429161E-1,4.738923073E0,1.236303902E1,1.324902324E1
4.588103310E-1,4.430370331E-1,5.091511250E0,1.254044342E1,1.354187911E1
4.635521020E-1,5.408320427E-1,5.484003544E0,1.246646500E1,1.363009698E1
4.682938210E-1,6.821889877E-1,5.839626312E0,1.220699120E1,1.354906828E1
4.730355400E-1,7.638912201E-1,6.055687904E0,1.183711052E1,1.331811065E1
4.777773110E-1,7.771186829E-1,6.114781380E0,1.145792294E1,1.301070570E1
4.825190290E-1,7.374634743E-1,6.027251244E0,1.111796951E1,1.266810388E1
4.872608000E-1,6.396417618E-1,5.806875706E0,1.085886574E1,1.233060875E1
4.920025190E-1,4.885892868E-1,5.492691040E0,1.066094017E1,1.200266719E1
4.967442380E-1,3.443880081E-1,5.134915352E0,1.045326900E1,1.165147165E1
5.014860090E-1,1.902213097E-1,4.739834785E0,1.024843979E1,1.129303927E1
5.062277270E-1,4.965305328E-3,4.315903664E0,1.003547192E1,1.092418169E1
5.109694460E-1,-1.558170319E-1,3.887890339E0,9.818177223E0,1.056108774E1
5.157112170E-1,-2.782392502E-1,3.501805782E0,9.601164818E0,1.022362102E1
5.204529360E-1,-3.172016144E-1,3.156503439E0,9.313199043E0,9.838689305E0
5.251946540E-1,-2.657003403E-1,2.846381664E0,8.919152260E0,9.366096427E0
5.299364250E-1,-2.441735268E-1,2.562703133E0,8.445962906E0,8.829572893E0
5.346781440E-1,-2.446317673E-1,2.325061321E0,7.971764565E0,8.307513775E0
5.394198630E-1,-2.129931450E-1,2.188071966E0,7.523390770E0,7.838012100E0
5.441616340E-1,-1.455578804E-1,2.080808163E0,7.117498398E0,7.416854667E0
5.489033520E-1,-7.277059555E-2,1.948738098E0,6.623695374E0,6.904796604E0
5.536451230E-1,-1.256966591E-2,1.762210369E0,6.005435944E0,6.258658343E0
5.583868420E-1,7.438659668E-4,1.533883333E0,5.357485771E0,5.572741912E0
5.631285610E-1,1.461505890E-3,1.318793654E0,4.752428055E0,4.932016956E0
5.678703310E-1,4.033589363E-2,1.157540679E0,4.181767464E0,4.339205749E0
5.726120500E-1,1.150925159E-1,1.036260128E0,3.603816032E0,3.751609166E0
5.773537690E-1,1.891119480E-1,9.248197079E-1,3.002975464E0,3.147843144E0
5.820955400E-1,2.393603325E-1,7.863422632E-1,2.387166977E0,2.524716558E0
5.868372590E-1,2.385492325E-1,6.223949194E-1,1.809427261E0,1.928291520E0
5.915789770E-1,1.925902367E-1,4.277073145E-1,1.258090019E0,1.342689481E0
5.963207480E-1,1.332302094E-1,2.469660044E-1,7.461051941E-1,7.971295106E-1
6.010624670E-1,9.264731407E-2,9.349942207E-2,2.818231583E-1,3.110465548E-1
6.058041860E-1,9.110927582E-2,-1.720392704E-2,-1.643743515E-1,1.887214950E-1
6.105459560E-1,1.367318630E-1,-9.345316887E-2,-6.053104401E-1,6.275586235E-1
6.152876750E-1,2.032256126E-1,-1.625312567E-1,-1.019980431E0,1.052652430E0
6.200293940E-1,3.053412437E-1,-2.422310114E-1,-1.389713287E0,1.443333696E0
6.247711650E-1,4.340987206E-1,-3.387669325E-1,-1.693469524E0,1.780742475E0
6.295128840E-1,5.689313412E-1,-4.470514059E-1,-1.919654846E0,2.051490326E0
6.342546020E-1,7.036314011E-1,-5.746014118E-1,-2.058991909E0,2.250491416E0
6.389963730E-1,8.249294758E-1,-7.032158375E-1,-2.121139526E0,2.382069278E0
6.437380920E-1,9.509375095E-1,-8.271571398E-1,-2.091680527E0,2.442048015E0
6.484798110E-1,1.097696781E0,-9.339821339E-1,-1.958452225E0,2.431624142E0
6.532215810E-1,1.257439375E0,-1.030453801E0,-1.721243382E0,2.367629109E0
6.579633000E-1,1.415105462E0,-1.123449802E0,-1.406041145E0,2.289457278E0
6.627050190E-1,1.562361002E0,-1.212509394E0,-1.038854599E0,2.233913563E0
6.674467900E-1,1.683694720E0,-1.306329012E0,-6.575002670E-1,2.230163671E0
6.721885090E-1,1.779930234E0,-1.408412457E0,-3.044748306E-1,2.290083450E0
6.769302270E-1,1.846761227E0,-1.514659524E0,-1.740837097E-2,2.388519113E0
6.816719460E-1,1.898636103E0,-1.634687662E0,1.970434189E-1,2.513135275E0
6.864137170E-1,1.947427273E0,-1.758797288E0,3.274526596E-1,2.644440608E0
6.911554360E-1,2.007347107E0,-1.888771653E0,3.695287704E-1,2.780908535E0
6.958971540E-1,2.075074434E0,-2.028673887E0,3.377761841E-1,2.921565402E0
7.006389250E-1,2.158715487E0,-2.170683384E0,2.440967560E-1,3.071075077E0
7.053806440E-1,2.278331995E0,-2.302198410E0,1.098260880E-1,3.240829519E0
7.101223630E-1,2.425889254E0,-2.415403366E0,-6.034946442E-2,3.423850778E0
7.148640810E-1,2.581819534E0,-2.500173092E0,-2.688312531E-1,3.604015516E0
7.196058520E-1,2.719534159E0,-2.575317383E0,-5.084409714E-1,3.779766909E0
7.243475710E-1,2.819806099E0,-2.647709846E0,-7.648878098E-1,3.942933835E0
7.290892900E-1,2.870997667E0,-2.717362642E0,-1.019065857E0,4.082301135E0
7.338310610E-1,2.878380775E0,-2.777058125E0,-1.278120041E0,4.198894921E0
7.385727790E-1,2.854680061E0,-2.831541538E0,-1.530017853E0,4.302066988E0
7.433144980E-1,2.808154106E0,-2.888048172E0,-1.757899284E0,4.395083801E0
7.480562690E-1,2.766063690E0,-2.953723192E0,-1.959277630E0,4.496038019E0
7.527979880E-1,2.738726377E0,-3.037984610E0,-2.150734901E0,4.621215563E0
7.575397060E-1,2.726780653E0,-3.135905266E0,-2.336869240E0,4.767619155E0
7.622814250E-1,2.740457773E0,-3.242574692E0,-2.505558491E0,4.929728470E0
7.670231960E-1,2.785068512E0,-3.376899719E0,-2.656652451E0,5.120337935E0
7.717649150E-1,2.860651016E0,-3.538868427E0,-2.775785923E0,5.330281557E0
7.765066340E-1,2.936872959E0,-3.726140976E0,-2.857986450E0,5.538721504E0
7.812484040E-1,2.998037815E0,-3.938967466E0,-2.902910233E0,5.738517514E0
7.859901230E-1,3.117000103E0,-4.125758648E0,-2.814713478E0,5.887290211E0
7.907318420E-1,3.239202499E0,-4.339613438E0,-2.667319298E0,6.036494832E0
7.954736130E-1,3.295183897E0,-4.615915298E0,-2.579841137E0,6.230609220E0
8.002153310E-1,3.313199043E0,-4.937337875E0,-2.528008461E0,6.461069569E0
8.049570500E-1,3.342404604E0,-5.300576210E0,-2.528370857E0,6.757250616E0
8.096987690E-1,3.433955193E0,-5.680272102E0,-2.583364964E0,7.122591800E0
8.144405400E-1,3.629678011E0,-6.057773590E0,-2.693068504E0,7.558028930E0
8.191822590E-1,3.930936813E0,-6.435291290E0,-2.886276245E0,8.074393400E0
8.239239770E-1,4.351166725E0,-6.809661865E0,-3.165585518E0,8.679002147E0
8.286657480E-1,4.894621849E0,-7.172629833E0,-3.521627903E0,9.370475167E0
8.334074670E-1,5.496751785E0,-7.520606041E0,-3.935453892E0,1.011244742E1
8.381491860E-1,6.052360058E0,-7.853009224E0,-4.400104046E0,1.084719926E1
8.428909040E-1,6.480892658E0,-8.169803619E0,-4.910573483E0,1.152655164E1
8.476326750E-1,6.707178116E0,-8.486111641E0,-5.418409348E0,1.209791259E1
8.523743940E-1,6.717387199E0,-8.796686172E0,-5.841995239E0,1.251534605E1
8.571161130E-1,6.553168297E0,-9.068413734E0,-6.146017551E0,1.276533094E1
8.618578310E-1,6.252156258E0,-9.281161308E0,-6.341235161E0,1.286237445E1
8.665996020E-1,5.906646729E0,-9.377883911E0,-6.323993206E0,1.276033198E1
8.713413210E-1,5.546516895E0,-9.335878372E0,-6.058145523E0,1.243477390E1
8.760830400E-1,5.107861996E0,-9.223376274E0,-5.580257893E0,1.192896484E1
8.808248110E-1,4.636920929E0,-9.072171211E0,-4.920150757E0,1.131429227E1
8.855665290E-1,4.197476387E0,-8.910846710E0,-4.159704208E0,1.069229331E1
8.903082480E-1,3.785269976E0,-8.747851372E0,-3.401175976E0,1.012033450E1
8.950499670E-1,3.387305498E0,-8.600736618E0,-2.657690525E0,9.618202942E0
8.997917380E-1,2.993264914E0,-8.468041420E0,-1.913531780E0,9.183080322E0
9.045334560E-1,2.607273340E0,-8.334063530E0,-1.191037655E0,8.813232091E0
9.092751750E-1,2.217261553E0,-8.185677528E0,-5.238180161E-1,8.496820035E0
9.140168940E-1,1.821321011E0,-8.000234604E0,6.485700607E-2,8.205191672E0
9.187586650E-1,1.398842335E0,-7.776681423E0,5.617709160E-1,7.921434239E0
9.235003840E-1,8.986487389E-1,-7.509355545E0,1.004069328E0,7.629295215E0
9.282421020E-1,3.388257027E-1,-7.176009178E0,1.457191944E0,7.330301422E0
9.329838210E-1,-2.360925674E-1,-6.744983673E0,1.950760841E0,7.025383428E0
9.377255920E-1,-8.099613190E-1,-6.208475113E0,2.435951233E0,6.718263092E0
9.424673110E-1,-1.456967831E0,-5.580735207E0,2.887822151E0,6.450339331E0
9.472090290E-1,-2.246320724E0,-4.866649151E0,3.319113255E0,6.304501848E0
9.519507480E-1,-3.159781933E0,-4.049188614E0,3.693878174E0,6.326522446E0
9.566925190E-1,-4.084182739E0,-3.129293203E0,3.990831375E0,6.511509784E0
9.614342380E-1,-4.948203087E0,-2.147592068E0,4.218994141E0,6.848122154E0
9.661759560E-1,-5.781888485E0,-1.151323557E0,4.378952980E0,7.343773525E0
9.709176750E-1,-6.657805443E0,-1.926217079E-1,4.456699848E0,8.014090714E0
9.756594460E-1,-7.570139408E0,6.817157269E-1,4.416352749E0,8.790672249E0
9.804011650E-1,-8.426031113E0,1.451586246E0,4.245294094E0,9.546079032E0
9.851428840E-1,-9.133663177E0,2.108988047E0,4.037805557E0,1.020664036E1
9.898846020E-1,-9.706014633E0,2.659509897E0,3.944760799E0,1.080929464E1
9.946263730E-1,-1.019145012E1,3.103127480E0,4.030182838E0,1.139023395E1
9.993680920E-1,-1.066697502E1,3.422127247E0,4.352142334E0,1.201817182E1
1.004109811E0,-1.117577648E1,3.590703487E0,4.923420429E0,1.272914766E1
1.008851529E0,-1.164164829E1,3.646081448E0,5.615460873E0,1.342964205E1
1.013593248E0,-1.202711296E1,3.631308079E0,6.272595882E0,1.404219725E1
1.018335019E0,-1.237538624E1,3.551788568E0,6.774219036E0,1.454838239E1
1.023076738E0,-1.272466755E1,3.408171415E0,7.098197937E0,1.496386349E1
1.027818456E0,-1.311450958E1,3.196219921E0,7.265964985E0,1.532972376E1
1.032560175E0,-1.354329586E1,2.944875240E0,7.282423496E0,1.565652723E1
1.037301946E0,-1.397570419E1,2.728205919E0,7.136077404E0,1.592755524E1
1.042043665E0,-1.438117504E1,2.568071127E0,6.796977520E0,1.611248238E1
1.046785384E0,-1.473322678E1,2.465110064E0,6.245573521E0,1.619110643E1
1.051527102E0,-1.506873035E1,2.387005091E0,5.463277817E0,1.620530260E1
1.056268873E0,-1.538638878E1,2.356121302E0,4.497981071E0,1.620259550E1
1.061010592E0,-1.562319374E1,2.377726078E0,3.454140663E0,1.617618162E1
1.065752311E0,-1.572853279E1,2.438152552E0,2.378484726E0,1.609312031E1
1.070494029E0,-1.564502907E1,2.523994923E0,1.310370922E0,1.590140110E1
1.075235748E0,-1.534662056E1,2.605739594E0,2.343978882E-1,1.556803083E1
1.079977519E0,-1.481187344E1,2.661419153E0,-8.121118546E-1,1.507097450E1
1.084719238E0,-1.408352661E1,2.675986290E0,-1.756353378E0,1.444269371E1
1.089460956E0,-1.319265556E1,2.650815010E0,-2.535849094E0,1.369319216E1
1.094202675E0,-1.208506298E1,2.601584196E0,-3.131642342E0,1.275241825E1
1.098944394E0,-1.073116779E1,2.536985874E0,-3.553627014E0,1.158544451E1
1.103686165E0,-9.196960449E0,2.410280943E0,-3.819163799E0,1.024595275E1
1.108427884E0,-7.656435013E0,2.223743200E0,-3.840579033E0,8.849637181E0
1.113169602E0,-6.185084820E0,1.995606661E0,-3.628613949E0,7.443423900E0
1.117911321E0,-4.808636189E0,1.734285355E0,-3.222951889E0,6.043024620E0
1.122653040E0,-3.572295189E0,1.467074871E0,-2.701557636E0,4.712962471E0
1.127394811E0,-2.509592533E0,1.199831247E0,-2.137440681E0,3.508033975E0
1.132136529E0,-1.641837597E0,9.698934555E-1,-1.617211342E0,2.500339284E0
1.136878248E0,-9.880514145E-1,7.861077785E-1,-1.188927174E0,1.734289152E0
1.141619967E0,-5.533394814E-1,6.527490616E-1,-8.934593201E-1,1.237148122E0
1.146361686E0,-3.050251007E-1,5.889577866E-1,-7.524032593E-1,1.003006606E0
1.151103456E0,-1.846213341E-1,5.807414055E-1,-8.040156364E-1,1.008854182E0
1.155845175E0,-1.529974937E-1,6.001942158E-1,-1.043422699E0,1.213413474E0
1.160586894E0,1.613807678E-1,6.649591923E-1,-1.572660923E0,1.715073427E0
1.165328613E0,5.559854507E-1,6.924238205E-1,-2.237097740E0,2.406901923E0
1.170070331E0,6.379342079E-1,6.216909885E-1,-3.078249454E0,3.204540442E0
1.174812102E0,4.430928230E-1,4.917175770E-1,-3.806021214E0,3.863148315E0
1.179553821E0,1.606483459E-1,7.191395760E-2,-4.471208572E0,4.474671564E0
1.184295540E0,-2.072725296E-1,-1.505973339E0,-5.656485081E0,5.857195666E0
1.189037259E0,-9.902987480E-1,-3.930192947E0,-7.461939335E0,8.491622157E0
1.193778977E0,-9.128065109E-1,-4.018809795E0,-7.643428326E0,8.683665382E0
1.198520696E0,-1.065802574E-1,-2.346607685E0,-6.862098217E0,7.253021365E0
1.203262467E0,6.730065346E-1,-3.771681786E-1,-5.928888321E0,5.978871997E0
1.208004186E0,8.940534592E-1,8.528397083E-1,-5.323804855E0,5.465305599E0
1.212745904E0,6.226167679E-1,1.189351082E0,-4.671999931E0,4.861048343E0
1.217487623E0,5.605030060E-2,9.051783085E-1,-3.674970388E0,3.785220834E0
1.222229342E0,-5.126180649E-1,3.733158112E-1,-2.463129044E0,2.543451722E0
1.226971113E0,-9.011249542E-1,-2.096734047E-1,-1.259856224E0,1.563082475E0
1.231712831E0,-1.041557789E0,-7.477450371E-1,-2.802481651E-1,1.312442114E0
1.236454550E0,-9.942965508E-1,-1.179295540E0,3.727169037E-1,1.586909415E0
1.241196269E0,-8.342595100E-1,-1.453019381E0,7.341709137E-1,1.829278869E0
1.245937988E0,-5.738921165E-1,-1.574525595E0,8.700056076E-1,1.888224766E0
1.250679706E0,-2.619233131E-1,-1.613208055E0,8.591322899E-1,1.846389001E0
1.255421425E0,9.017372131E-2,-1.630519152E0,7.453250885E-1,1.795058075E0
1.260163196E0,3.955435753E-1,-1.702337265E0,5.866832733E-1,1.843530349E0
1.264904915E0,5.568871498E-1,-1.900708914E0,4.054279327E-1,2.021679866E0
1.269646634E0,5.712418556E-1,-2.243752718E0,3.240098953E-1,2.337889204E0
1.274388352E0,5.241384506E-1,-2.656862259E0,3.666515350E-1,2.732777255E0
1.279130071E0,4.608860016E-1,-3.068506241E0,4.959759712E-1,3.142314214E0
1.283871790E0,4.154748917E-1,-3.414937019E0,6.755204201E-1,3.505815464E0
1.288613561E0,5.026941299E-1,-3.546516895E0,9.000644684E-1,3.693318227E0
1.293355279E0,5.250067711E-1,-3.633111477E0,1.118906498E0,3.837588157E0
1.298096998E0,5.034904480E-1,-3.646478176E0,1.358703136E0,3.923822108E0
1.302838717E0,5.146889687E-1,-3.509816170E0,1.626007557E0,3.902257661E0
1.307580436E0,4.854483604E-1,-3.227069139E0,1.914445400E0,3.783482064E0
1.312322154E0,5.514616966E-1,-2.858263493E0,2.045087814E0,3.557550332E0
1.317063925E0,5.114073753E-1,-2.476200104E0,2.122734547E0,3.301379471E0
1.321805644E0,3.514456749E-1,-2.017264605E0,2.061573982E0,2.905676828E0
1.326547363E0,1.266045570E-1,-1.431538343E0,1.809561729E0,2.310810333E0
1.331289081E0,-1.202707291E-1,-7.619369030E-1,1.396067619E0,1.594997709E0
1.336030800E0,-4.915356636E-1,-1.284835339E-1,9.148392677E-1,1.046444558E0
1.340772519E0,-9.672389030E-1,3.965761662E-1,4.833388329E-1,1.151711847E0
1.345514238E0,-1.308372974E0,7.712225914E-1,1.473064423E-1,1.525884436E0
1.350256009E0,-1.339738369E0,9.530243874E-1,-1.529555321E-1,1.651226749E0
1.354997727E0,-9.905943871E-1,9.263782501E-1,-3.710298538E-1,1.406099945E0
1.359739446E0,-3.955645561E-1,7.105370760E-1,-3.586320877E-1,8.887920053E-1
1.364481165E0,3.903856277E-1,4.271728992E-1,-1.322536469E-1,5.936064785E-1
1.369222884E0,1.203359127E0,4.873442650E-2,2.538075447E-1,1.230799132E0
1.373964602E0,1.937136173E0,-4.339518547E-1,6.949076653E-1,2.103261141E0
1.378706373E0,2.552633762E0,-9.872555733E-1,1.067669392E0,2.937776476E0
1.383448092E0,2.992415905E0,-1.568162203E0,1.261861801E0,3.606380574E0
1.388189811E0,3.224246502E0,-2.133828640E0,1.283525467E0,4.073871352E0
1.392931529E0,3.349479198E0,-2.634177208E0,1.150588989E0,4.413814165E0
1.397673248E0,3.354761362E0,-3.028959274E0,9.502768517E-1,4.618662596E0
1.402414967E0,3.217291355E0,-3.285178185E0,6.550612450E-1,4.644616734E0
1.407156686E0,3.053858757E0,-3.386765957E0,3.579354286E-1,4.574314673E0
1.411898404E0,3.057622671E0,-3.321479559E0,3.523969650E-2,4.514700953E0
1.416640175E0,3.301229954E0,-3.123662949E0,-3.633041382E-1,4.559317857E0
1.421381894E0,3.706617117E0,-2.887533665E0,-1.016986847E0,4.807402975E0
1.426123613E0,4.070910454E0,-2.634549141E0,-1.543063641E0,5.088635033E0
1.430865331E0,4.282545567E0,-2.376076698E0,-1.928307533E0,5.263488097E0
1.435607050E0,4.306177139E0,-2.123823881E0,-2.181538582E0,5.273793703E0
1.440348769E0,4.227564335E0,-1.917710900E0,-2.290532112E0,5.176529017E0
1.445090488E0,4.143126965E0,-1.770635128E0,-2.255630970E0,5.038702301E0
1.449832206E0,3.993440390E0,-1.626463056E0,-2.041495800E0,4.770812648E0
1.454573925E0,3.701294661E0,-1.526664495E0,-1.716486931E0,4.356215563E0
1.459315644E0,3.460853815E0,-1.463298202E0,-1.358763695E0,3.995621295E0
1.464057415E0,3.357689619E0,-1.427817225E0,-9.943189621E-1,3.781720747E0
1.468799134E0,3.269520998E0,-1.498266459E0,-7.136850357E-1,3.666594642E0
1.473540852E0,3.105389118E0,-1.650584579E0,-5.454158783E-1,3.558841034E0
1.478282571E0,2.859617472E0,-1.846094489E0,-4.664101601E-1,3.435551686E0
1.483024290E0,2.578366756E0,-2.050843239E0,-4.161391258E-1,3.320708493E0
1.487766009E0,2.306577206E0,-2.238020658E0,-4.116554260E-1,3.240138124E0
1.492507727E0,1.982635021E0,-2.338964224E0,-3.641533852E-1,3.087750469E0
1.497249446E0,1.818373203E0,-2.343715668E0,-2.575383186E-1,2.977551045E0
1.501991165E0,1.850272179E0,-2.217669249E0,-3.576111794E-1,2.910231913E0
1.506732936E0,1.975991249E0,-1.987902403E0,-3.907895088E-1,2.830020109E0
1.511474654E0,2.067637920E0,-1.725391269E0,-3.706645966E-1,2.718362346E0
1.516216373E0,2.065343857E0,-1.471579432E0,-3.909811974E-1,2.565941848E0
1.520958092E0,2.008975983E0,-1.219943643E0,-4.097309113E-1,2.385817765E0
1.525699811E0,1.876608849E0,-9.713879824E-1,-4.371376038E-1,2.157856498E0
1.530441529E0,1.660229206E0,-7.508519888E-1,-4.886474609E-1,1.886508963E0
1.535183248E0,1.343250275E0,-5.572532415E-1,-5.406908989E-1,1.551515106E0
1.539924967E0,1.030645847E0,-3.812339306E-1,-6.102652550E-1,1.256978064E0
1.544666686E0,6.267819405E-1,-1.026768684E-1,-6.538281441E-1,9.115313391E-1
1.549408404E0,1.153235435E-1,2.218290567E-1,-9.949030876E-1,1.025836149E0
1.554150175E0,-3.368659019E-1,6.616139412E-1,-1.585988522E0,1.751162823E0
1.558891894E0,-4.894814491E-1,1.236480951E0,-2.022168159E0,2.420256453E0
1.563633613E0,-2.791490555E-1,1.930566669E0,-2.193505287E0,2.935383672E0
1.568375331E0,1.610379219E-1,2.682087421E0,-2.127876997E0,3.427446085E0
1.573117050E0,6.172375679E-1,3.372852564E0,-2.033289433E0,3.986399698E0
1.577858769E0,9.242939949E-1,3.935181379E0,-2.058496952E0,4.536229886E0
1.582600488E0,1.033783913E0,4.387879372E0,-2.288685799E0,5.055717283E0
1.587342206E0,8.756155968E-1,4.454217911E0,-2.527942181E0,5.195887945E0
1.592083925E0,3.986349106E-1,4.100781441E0,-2.651118040E0,4.899361701E0
1.596825644E0,-3.681993484E-1,3.567747593E0,-2.619150400E0,4.441209572E0
1.601567363E0,-1.280911922E0,3.081198931E0,-2.583714962E0,4.220202034E0
1.606309081E0,-1.943054676E0,2.765627384E0,-2.646276712E0,4.292660800E0
1.611050852E0,-2.195226192E0,2.689796209E0,-2.814405680E0,4.469328922E0
1.615792571E0,-2.028295994E0,2.807525396E0,-2.989671946E0,4.575404007E0
1.620534290E0,-1.621420383E0,3.066035271E0,-3.100459337E0,4.652141920E0
1.625276009E0,-1.164354801E0,3.379597187E0,-3.120302916E0,4.744859274E0
1.630017727E0,-7.351770401E-1,3.668454885E0,-3.042659998E0,4.822429511E0
1.634759446E0,-5.228309631E-1,3.860697746E0,-2.857448339E0,4.831495660E0
1.639501165E0,-7.588558197E-1,3.951639414E0,-2.588966370E0,4.784774088E0
1.644242884E0,-1.375659943E0,3.896288395E0,-2.318904877E0,4.738229982E0
1.648984602E0,-2.061802864E0,3.647374153E0,-2.058213949E0,4.668041765E0
1.653726321E0,-2.665441513E0,3.200332165E0,-1.767156839E0,4.524328427E0
1.658468040E0,-3.286904335E0,2.624845028E0,-1.479937553E0,4.459121740E0
1.663209759E0,-3.888763428E0,1.976577163E0,-1.237365007E0,4.534358878E0
1.667951477E0,-4.353652000E0,1.276191711E0,-1.056067467E0,4.658135842E0
1.672693248E0,-4.594284058E0,5.462486744E-1,-9.264469147E-1,4.718488900E0
1.677434915E0,-4.919686317E0,-2.785968781E-1,5.991432667E-1,4.963859621E0
1.682176686E0,-5.198718071E0,-1.215165615E0,3.348575830E0,6.302083556E0
1.686918404E0,-4.936238289E0,-1.909139156E0,6.613658905E0,8.470640169E0
1.691660123E0,-4.270812988E0,-2.615266800E0,9.871335983E0,1.106899897E1
1.696401842E0,-3.571010590E0,-3.447949648E0,1.138157272E1,1.241695096E1
1.701143561E0,-3.076982498E0,-4.173420429E0,1.121574402E1,1.235630095E1
1.705885279E0,-2.694252014E0,-4.666489124E0,1.009596539E1,1.144393428E1
1.710626998E0,-2.277091026E0,-4.880035400E0,8.561547279E0,1.011434530E1
1.715368717E0,-1.807048798E0,-4.814826012E0,7.027420998E0,8.708192738E0
1.720110436E0,-1.399215698E0,-4.520466328E0,5.701491356E0,7.409414557E0
1.724852154E0,-1.046138763E0,-4.041872025E0,4.606009483E0,6.216627634E0
1.729593873E0,-6.949453354E-1,-3.409559727E0,3.732351065E0,5.102792473E0
1.734335592E0,-3.477010727E-1,-2.706463099E0,3.048410654E0,4.091289046E0
1.739077311E0,-1.835632324E-2,-2.001410961E0,2.514792204E0,3.214057034E0
1.743819029E0,2.336130142E-1,-1.301639557E0,2.016963720E0,2.411842289E0
1.748560748E0,2.515592575E-1,-6.756083965E-1,1.520035505E0,1.682330735E0
1.753302467E0,2.985954285E-3,-1.612658501E-1,9.706759453E-1,9.839854578E-1
1.758044238E0,-3.756399155E-1,2.589533329E-1,4.334709644E-1,6.293323857E-1
1.762785956E0,-8.181428909E-1,5.982174873E-1,-6.263518333E-2,1.015453159E0
1.767527675E0,-1.170530319E0,8.713694811E-1,-5.221946239E-1,1.549875229E0
1.772269394E0,-1.347899437E0,1.056802392E0,-9.082710743E-1,1.938716207E0
1.777011113E0,-1.292215347E0,1.111640573E0,-1.353237987E0,2.176423285E0
1.781752831E0,-9.148836136E-1,1.001658082E0,-2.004245996E0,2.420192751E0
1.786494550E0,-3.930559158E-1,7.829324007E-1,-2.516489744E0,2.664619434E0
1.791236269E0,1.167707443E-1,5.372074842E-1,-2.520181417E0,2.579446000E0
1.795977988E0,4.886894226E-1,2.709754705E-1,-2.080176830E0,2.153922167E0
1.800719706E0,7.350492477E-1,-5.250978470E-2,-1.416057348E0,1.596331133E0
1.805461425E0,9.279489517E-1,-4.454079866E-1,-7.458403111E-1,1.271123637E0
1.810203144E0,1.089406013E0,-9.058572054E-1,-1.093356609E-1,1.421033788E0
1.814944863E0,1.134167671E0,-1.435548663E0,5.375640392E-1,1.906859032E0
1.819686581E0,9.945774078E-1,-2.023390055E0,1.247563839E0,2.576762904E0
1.824428300E0,7.377204895E-1,-2.591256380E0,1.942831993E0,3.321661828E0
1.829170019E0,4.546661377E-1,-3.062529802E0,2.516422510E0,3.989760937E0
1.833911738E0,1.995830536E-1,-3.393654823E0,2.987952471E0,4.525990104E0
1.838653456E0,-3.703689575E-2,-3.586448669E0,3.441308022E0,4.970572069E0
1.843395175E0,-2.586317062E-1,-3.687762260E0,3.863379717E0,5.347165949E0
1.848136946E0,-3.831090927E-1,-3.724639654E0,4.168194771E0,5.602995697E0
1.852878665E0,-3.265514374E-1,-3.708578825E0,4.292946815E0,5.682392551E0
1.857620384E0,-6.021499634E-2,-3.678666592E0,4.184390068E0,5.571833987E0
1.862362102E0,3.517599106E-1,-3.670982838E0,3.811828613E0,5.303761628E0
1.867103821E0,8.248329163E-1,-3.684078693E0,3.333811998E0,5.036574987E0
1.871845540E0,1.263265610E0,-3.681108952E0,2.845897436E0,4.821362394E0
1.876587259E0,1.624380589E0,-3.656835079E0,2.372740269E0,4.651983607E0
1.881328977E0,1.901114464E0,-3.612983465E0,1.906673193E0,4.505917042E0
1.886070696E0,2.153316021E0,-3.567740917E0,1.404540658E0,4.397531080E0
1.890812415E0,2.333450794E0,-3.525153637E0,8.338232040E-1,4.308939766E0
1.895554134E0,2.361117363E0,-3.511114359E0,2.333133221E-1,4.237597710E0
1.900295852E0,2.173056602E0,-3.549292088E0,-3.787623644E-1,4.178888638E0
1.905037571E0,1.782287598E0,-3.653656960E0,-9.974784851E-1,4.185776103E0
1.909779290E0,1.280209541E0,-3.840256691E0,-1.559924126E0,4.338187548E0
1.914521009E0,7.197923660E-1,-4.092375755E0,-1.986882091E0,4.605794265E0
1.919262727E0,1.469068527E-1,-4.352242947E0,-2.187313080E0,4.873185693E0
1.924004446E0,-4.378261566E-1,-4.566440105E0,-2.103369474E0,5.046605803E0
1.928746217E0,-8.930749893E-1,-4.715215683E0,-1.728118539E0,5.100709319E0
1.933487936E0,-1.164505005E0,-4.832633495E0,-1.152740240E0,5.102864731E0
1.938229654E0,-1.229765892E0,-4.948881626E0,-4.835169315E-1,5.122259474E0
1.942971373E0,-1.076751709E0,-5.041671276E0,2.941803932E-1,5.163756927E0
1.947713092E0,-1.105403900E0,-5.198371887E0,9.865053892E-1,5.405384440E0
1.952454811E0,-1.141144753E0,-5.332273483E0,1.336718917E0,5.614460732E0
1.957196529E0,-1.069955826E0,-5.391241550E0,1.383466005E0,5.667827548E0
1.961938248E0,-9.283742905E-1,-5.365648270E0,1.221406817E0,5.580671536E0
1.966679967E0,-6.353139877E-1,-5.209901333E0,8.830785751E-1,5.322266766E0
1.971421686E0,-1.250867844E-1,-4.863361835E0,4.215872288E-1,4.883202928E0
1.976163404E0,6.018257141E-1,-4.310237408E0,-1.088178158E-2,4.352063776E0
1.980905123E0,1.412800789E0,-3.645008326E0,-2.804507017E-1,3.919278551E0
1.985646842E0,2.143082142E0,-2.996224165E0,-3.847076893E-1,3.703803494E0
1.990388561E0,2.701275826E0,-2.432201147E0,-3.637009859E-1,3.653049673E0
1.995130279E0,3.079511642E0,-1.957383633E0,-3.007640839E-1,3.661311469E0
1.999871998E0,3.281998634E0,-1.546276093E0,-2.775797844E-1,3.638617227E0
2.004613717E0,3.336986065E0,-1.178845167E0,-3.429188728E-1,3.555663831E0
2.009355436E0,3.241772175E0,-8.699023128E-1,-5.033190250E-1,3.393986875E0
2.014097206E0,2.934196472E0,-6.481644511E-1,-7.136274576E-1,3.088509388E0
2.018838925E0,2.371415138E0,-5.317306519E-1,-9.286565781E-1,2.601682203E0
2.023580644E0,1.694428444E0,-4.708083272E-1,-1.104480624E0,2.076686226E0
2.028322363E0,9.342899323E-1,-4.411492944E-1,-1.232278585E0,1.608110969E0
2.033064081E0,8.897495270E-2,-4.345858991E-1,-1.311190844E0,1.384197556E0
2.037805800E0,-7.738361359E-1,-4.488757849E-1,-1.367419004E0,1.634058313E0
2.042547519E0,-1.593661308E0,-4.875271916E-1,-1.433918715E0,2.198536333E0
2.047289238E0,-2.333855629E0,-5.529851913E-1,-1.526302218E0,2.842933904E0
2.052030956E0,-2.957313538E0,-6.557376385E-1,-1.684552908E0,3.466037177E0
2.056772675E0,-3.447878838E0,-7.885793447E-1,-1.913308501E0,4.021252949E0
2.061514394E0,-3.818367958E0,-8.966392279E-1,-2.168554783E0,4.481799372E0
2.066256113E0,-4.096951485E0,-9.479082823E-1,-2.400788546E0,4.842244027E0
2.070997831E0,-4.322585106E0,-9.285311103E-1,-2.550571203E0,5.104147870E0
2.075739550E0,-4.510825157E0,-8.566015363E-1,-2.620004177E0,5.286372261E0
2.080481269E0,-4.636444092E0,-7.449432611E-1,-2.612749815E0,5.373826930E0
2.085222988E0,-4.652506828E0,-5.914403200E-1,-2.545661211E0,5.336292012E0
2.089964759E0,-4.528704643E0,-4.077604413E-1,-2.434695482E0,5.157826714E0
2.094706477E0,-4.292324066E0,-1.935845613E-1,-2.286892414E0,4.867380999E0
2.099448196E0,-3.953853607E0,5.121576786E-2,-2.102075577E0,4.478203114E0
2.104189915E0,-3.504531860E0,3.223316967E-1,-1.898731112E0,3.998852475E0
2.108931634E0,-2.942856789E0,6.159424782E-1,-1.721770883E0,3.464720218E0
2.113673352E0,-2.301047325E0,9.232215881E-1,-1.576362491E0,2.938039413E0
2.118415071E0,-1.592216492E0,1.233239293E0,-1.463050723E0,2.489287032E0
2.123156790E0,-8.627262115E-1,1.542067528E0,-1.405596614E0,2.257868601E0
2.127898509E0,-1.203956604E-1,1.828941584E0,-1.402884245E0,2.308160877E0
2.132640227E0,5.891752243E-1,2.089565277E0,-1.466558099E0,2.619962433E0
2.137381946E0,1.258818626E0,2.307630062E0,-1.612489223E0,3.083812954E0
2.142123717E0,1.898064137E0,2.495767117E0,-1.818286657E0,3.624592023E0
2.146865436E0,2.497188568E0,2.654893637E0,-2.083367825E0,4.198193952E0
2.151607154E0,3.060555935E0,2.790822268E0,-2.417368650E0,4.795765085E0
2.156348873E0,3.582838535E0,2.914206266E0,-2.827678919E0,5.415265294E0
2.161090592E0,4.047146797E0,3.023645401E0,-3.282283783E0,6.024551065E0
2.165832311E0,4.362961292E0,3.062322855E0,-3.759187460E0,6.522633124E0
2.170574029E0,4.393455982E0,2.915787697E0,-4.211549282E0,6.748438391E0
2.175315748E0,4.147742748E0,2.601592541E0,-4.569390774E0,6.697117716E0
2.180057467E0,4.164039612E0,2.581006527E0,-4.643494129E0,6.750026541E0
2.184799186E0,4.403585911E0,2.769019842E0,-4.558956623E0,6.916872505E0
2.189540904E0,4.628927231E0,2.930136204E0,-4.438727856E0,7.050884374E0
2.194282675E0,4.762112617E0,3.013559580E0,-4.315949917E0,7.098357670E0
2.199024394E0,4.804666996E0,3.040859938E0,-4.194259167E0,7.065653831E0
2.203766113E0,4.759876728E0,3.059892893E0,-4.038226128E0,6.951736563E0
2.208507831E0,4.650760174E0,3.091790915E0,-3.880492210E0,6.800511823E0
2.213249550E0,4.435685158E0,3.088255644E0,-3.758354425E0,6.583149226E0
2.217991269E0,4.071760654E0,2.989087343E0,-3.663973570E0,6.240078549E0
2.222732988E0,3.524362087E0,2.778865099E0,-3.568784237E0,5.734059669E0
2.227474706E0,2.755115509E0,2.465343952E0,-3.428729534E0,5.042297937E0
2.232216477E0,1.704489708E0,2.041463375E0,-3.196259499E0,4.157996231E0
2.236958196E0,1.810097694E-1,1.301725984E0,-2.830400944E0,3.120644897E0
2.241699915E0,-1.434649467E0,5.161842704E-1,-2.241873503E0,2.711210449E0
2.246441634E0,-2.771947861E0,-3.612241149E-2,-1.524503708E0,3.163717959E0
2.251183352E0,-3.871792316E0,-5.090655684E-1,-8.097524643E-1,3.988185370E0
2.255925071E0,-4.715184212E0,-9.803782701E-1,-1.496100426E-1,4.818348977E0
2.260666790E0,-5.289146423E0,-1.445227623E0,3.603925705E-1,5.494873572E0
2.265408561E0,-5.638864517E0,-1.863445759E0,7.144489288E-1,5.981610186E0
2.270150279E0,-5.767125130E0,-2.200221062E0,9.200725555E-1,6.240772267E0
2.274891998E0,-5.691456318E0,-2.432729721E0,9.746646881E-1,6.265845527E0
2.279633717E0,-5.472158432E0,-2.564410210E0,8.520326614E-1,6.103005594E0
2.284375436E0,-5.183000088E0,-2.608655930E0,6.058664322E-1,5.834008039E0
2.289117154E0,-4.911788464E0,-2.551215172E0,3.424000740E-1,5.545412751E0
2.293858873E0,-4.684208870E0,-2.412034988E0,1.697640419E-1,5.271484170E0
2.298600592E0,-4.519024849E0,-2.199694872E0,9.747934341E-2,5.026902161E0
2.303342363E0,-4.392246723E0,-1.908665180E0,1.537909508E-1,4.791501404E0
2.308084081E0,-4.280375481E0,-1.566601753E0,2.827329636E-1,4.566814342E0
2.312825800E0,-4.150746346E0,-1.192610741E0,3.277950287E-1,4.331104384E0
2.317567519E0,-3.978775501E0,-7.692378759E-1,1.652078629E-1,4.055819897E0
2.322309238E0,-3.735225201E0,-2.962669134E-1,-9.933233261E-2,3.748272708E0
2.327050956E0,-3.440911770E0,1.994227469E-1,-3.506503105E-1,3.464476711E0
2.331792727E0,-3.162157059E0,6.806613803E-1,-5.457782745E-1,3.280306556E0
2.336534446E0,-2.917348385E0,1.097871304E0,-6.323246956E-1,3.180578174E0
2.341276165E0,-2.628875732E0,1.440419436E0,-5.334944725E-1,3.044735148E0
2.346017884E0,-2.254788876E0,1.727509022E0,-3.034267426E-1,2.856646300E0
2.350759602E0,-1.813291073E0,1.986125469E0,-8.355617523E-3,2.689384448E0
2.355501321E0,-1.327349663E0,2.222351313E0,3.025226593E-1,2.606189257E0
2.360243092E0,-8.099212646E-1,2.423141956E0,6.094856262E-1,2.626606580E0
2.364984811E0,-3.143219948E-1,2.587011337E0,9.601826668E-1,2.777296658E0
2.369726529E0,1.427788734E-1,2.719398022E0,1.360158920E0,3.043935560E0
2.374468248E0,4.020047188E-1,2.810054541E0,1.829994202E0,3.377409228E0
2.379209967E0,4.485535622E-1,2.888250351E0,2.493911266E0,3.842236821E0
2.383951686E0,3.332519531E-1,2.992726326E0,3.414835453E0,4.552863813E0
2.388693456E0,9.712362289E-2,3.150920391E0,4.449670315E0,5.453191563E0
2.393435175E0,-1.919298172E-1,3.349306583E0,5.382057190E0,6.342021069E0
2.398176894E0,-4.178929329E-1,3.592895031E0,6.173022270E0,7.154700074E0
2.402918613E0,-5.708322525E-1,3.865532637E0,6.822780132E0,7.862475485E0
2.407660384E0,-7.102370262E-1,4.121209145E0,7.213567257E0,8.338126529E0
2.412402102E0,-7.270693779E-1,4.360500813E0,7.169308186E0,8.422682297E0
2.417143821E0,-5.801391602E-1,4.522568226E0,6.480861187E0,7.924124338E0
2.421885540E0,-4.110445976E-1,4.539172649E0,5.402597427E0,7.068316982E0
2.426627259E0,-2.691960335E-1,4.409700394E0,4.309501648E0,6.171687656E0
2.431369029E0,-7.151889801E-2,4.189399719E0,3.412176132E0,5.403622018E0
2.436110748E0,2.018251419E-1,3.917766094E0,2.740306854E0,4.785280160E0
2.440852467E0,5.904145241E-1,3.635338068E0,2.082456112E0,4.230945005E0
2.445594186E0,9.538197517E-1,3.233505726E0,1.391558647E0,3.647158739E0
2.450335904E0,1.236437798E0,2.734252453E0,8.101491928E-1,3.108256202E0
2.455077675E0,1.505031109E0,2.203488111E0,3.614048958E-1,2.692785174E0
2.459819394E0,1.833954811E0,1.638054490E0,1.216030121E-1,2.461991075E0
2.464561113E0,2.112064362E0,1.037871122E0,1.651220322E-1,2.359079825E0
2.469302831E0,2.399786949E0,5.708250403E-1,3.168311119E-1,2.487006349E0
2.474044602E0,2.615704536E0,1.599452496E-1,6.288261414E-1,2.694979596E0
2.478786321E0,2.647970200E0,-2.605607510E-1,1.132135868E0,2.891603311E0
2.483528040E0,2.454030037E0,-6.906501055E-1,1.742292404E0,3.087854241E0
2.488269759E0,2.072725296E0,-1.074783921E0,2.276720047E0,3.261104844E0
2.493011529E0,1.578145504E0,-1.368258476E0,2.626759529E0,3.355970815E0
2.497753248E0,1.023607731E0,-1.534770846E0,2.747343540E0,3.309258356E0
2.502494967E0,4.884619713E-1,-1.546556711E0,2.668131828E0,3.122396549E0
2.507236686E0,3.323268890E-2,-1.413173437E0,2.463026524E0,2.839835071E0
2.511978456E0,-3.496499062E-1,-1.136787891E0,2.217009544E0,2.515884156E0
2.516720175E0,-6.803612709E-1,-7.128716707E-1,2.014029026E0,2.242184291E0
2.521461894E0,-9.233636856E-1,-1.731377840E-1,1.902383327E0,2.121706745E0
2.526203613E0,-1.063812733E0,4.335573316E-1,1.866332531E0,2.191544343E0
2.530945384E0,-1.082641125E0,1.058131814E0,1.901490688E0,2.430518788E0
2.535687102E0,-1.011820793E0,1.650735974E0,2.000022411E0,2.783666686E0
2.540428821E0,-8.572897911E-1,2.167686462E0,2.151151180E0,3.171949209E0
2.545170540E0,-6.320819855E-1,2.579318047E0,2.313041210E0,3.521728107E0
2.549912311E0,-3.372998238E-1,2.882136345E0,2.465322018E0,3.807662502E0
2.554654029E0,2.477169037E-3,3.070616722E0,2.564291954E0,4.000535766E0
2.559395748E0,3.609910011E-1,3.163849354E0,2.595990181E0,4.108457406E0
2.564137519E0,6.832518578E-1,3.171397209E0,2.558331966E0,4.131543998E0
2.568879238E0,9.430480003E-1,3.109988689E0,2.451643944E0,4.070863202E0
2.573620956E0,1.159400463E0,2.998874903E0,2.297524452E0,3.951718452E0
2.578362675E0,1.350864410E0,2.847599030E0,2.107351780E0,3.791383179E0
2.583104446E0,1.547309399E0,2.677599430E0,1.893949032E0,3.626396010E0
2.587846165E0,1.752059937E0,2.500586271E0,1.683982372E0,3.486895805E0
2.592587884E0,1.951666355E0,2.311532974E0,1.467978477E0,3.362610156E0
2.597329654E0,2.152090549E0,2.112908125E0,1.229611874E0,3.256964820E0
2.602071373E0,2.348038673E0,1.900004864E0,9.917674065E-1,3.179136154E0
2.606813092E0,2.525036335E0,1.682191133E0,7.825198174E-1,3.133354874E0
2.611554863E0,2.659241199E0,1.456754446E0,5.894784927E-1,3.088880407E0
2.616296581E0,2.736860752E0,1.246969581E0,4.558758736E-1,3.041901169E0
2.621038300E0,2.763697624E0,1.049683094E0,3.802232742E-1,2.980675912E0
2.625780071E0,2.762335777E0,8.622204661E-1,3.303031921E-1,2.912563008E0
2.630521790E0,2.709343433E0,7.272219658E-1,2.252473831E-1,2.814272555E0
2.635263509E0,2.573946476E0,6.679806709E-1,7.714128494E-2,2.660328817E0
2.640005279E0,2.396641254E0,6.801475286E-1,-2.051544189E-1,2.499715644E0
2.644746998E0,2.201816559E0,7.311627865E-1,-5.439567566E-1,2.382957014E0
2.649488717E0,2.171134949E0,7.891503572E-1,-1.002275944E0,2.518162489E0
2.654230488E0,2.296710968E0,8.710989356E-1,-1.316809177E0,2.787055980E0
2.658972206E0,2.616667271E0,9.199877977E-1,-1.064350843E0,2.970886715E0
2.663713925E0,2.932465076E0,9.184395075E-1,-5.111026764E-1,3.115141810E0
2.668455696E0,3.100713253E0,8.640127778E-1,1.765365601E-1,3.223678941E0
2.673197415E0,3.133324146E0,7.711797953E-1,8.510174751E-1,3.337164848E0
2.677939134E0,3.109018803E0,6.414226294E-1,1.422724724E0,3.478730594E0
2.682680904E0,3.056511879E0,4.863281250E-1,1.881851673E0,3.622174158E0
2.687422623E0,2.961933136E0,3.151931763E-1,2.202867031E0,3.704729113E0
2.692164342E0,2.842672348E0,1.303137541E-1,2.377442360E0,3.708099234E0
2.696906113E0,2.711312294E0,-3.486919403E-2,2.478593826E0,3.673670858E0
2.701647831E0,2.570529938E0,-1.518853903E-1,2.535519123E0,3.613800016E0
2.706389602E0,2.427753448E0,-1.993726492E-1,2.553483009E0,3.529024191E0
2.711131321E0,2.278149128E0,-1.796188354E-1,2.513393402E0,3.396965229E0
2.715873040E0,2.138139725E0,-9.224820137E-2,2.422095776E0,3.232135387E0
2.720614811E0,2.000131607E0,6.048369408E-2,2.281352997E0,3.034593254E0
2.725356529E0,1.844775200E0,2.547947168E-1,2.110000610E0,2.814288269E0
2.730098248E0,1.660101891E0,4.737877846E-1,1.895961285E0,2.564192338E0
2.734840019E0,1.443929672E0,7.149055004E-1,1.627586842E0,2.290209968E0
2.739581738E0,1.227786064E0,9.520362616E-1,1.324987411E0,2.041916576E0
2.744323509E0,1.004843712E0,1.178191662E0,1.008102894E0,1.847733185E0
2.749065227E0,7.919840813E-1,1.364794135E0,6.963949203E-1,1.724780479E0
2.753806946E0,-2.831850052E-1,2.042304993E0,-7.622797489E-1,2.198243355E0
2.758548717E0,-3.145961761E-1,1.921797752E0,-9.022762775E-1,2.146247851E0
2.763290436E0,-2.122068405E-1,1.643456459E0,-1.266988277E0,2.085962649E0
2.768032206E0,1.218891144E-2,1.184630156E0,-1.699414492E0,2.071595228E0
2.772773925E0,7.912826538E-2,5.675595999E-1,-1.897329569E0,1.981979988E0
2.777515696E0,5.609130859E-2,-8.591485023E-2,-1.872627974E0,1.875436782E0
2.782257415E0,-1.019620895E-1,-6.616151333E-1,-1.862130165E0,1.978802568E0
2.786999134E0,-2.926921844E-2,-1.147984982E0,-2.109939098E0,2.402200908E0
2.791740904E0,1.066589355E-2,-1.511927605E0,-2.434487581E0,2.865792844E0
2.796482623E0,2.400970459E-1,-1.813653469E0,-2.166683674E0,2.835754510E0
2.801224394E0,5.796155930E-1,-2.132484436E0,-1.382246733E0,2.606539878E0
2.805966113E0,8.638992310E-1,-2.332419872E0,-6.849501133E-1,2.579856779E0
2.810707884E0,1.102483749E0,-2.440267324E0,-2.232491970E-1,2.687045820E0
2.815449602E0,1.352469444E0,-2.491857052E0,-4.041314125E-2,2.835517305E0
2.820191373E0,1.587186337E0,-2.472616434E0,1.158118248E-2,2.938218273E0
2.824933092E0,1.713080883E0,-2.430030346E0,-5.092310905E-2,2.973598284E0
2.829674863E0,1.660802364E0,-2.373472691E0,-1.277663708E-1,2.899648488E0
2.834416581E0,1.469012737E0,-2.286155939E0,-1.254401207E-1,2.720338697E0
2.839158300E0,1.198022842E0,-2.220639944E0,-1.843543053E-1,2.529918379E0
2.843900071E0,6.858243942E-1,-2.062430143E0,-3.515121937E-1,2.201711611E0
2.848641790E0,-3.320026398E-2,-1.805026054E0,-6.760501862E-1,1.927761699E0
2.853383561E0,-8.529863358E-1,-1.470776796E0,-1.278702736E0,2.127404701E0
2.858125279E0,-1.713269234E0,-1.067659855E0,-1.962579608E0,2.815476470E0
2.862867050E0,-2.401223183E0,-6.320037842E-1,-2.675011635E0,3.649792981E0
2.867608769E0,-2.922166824E0,-1.807379723E-1,-3.129732370E0,4.285667961E0
2.872350540E0,-3.178562164E0,2.144740820E-1,-3.490007162E0,4.725400148E0
2.877092259E0,-3.245129585E0,6.164315939E-1,-3.815806389E0,5.046903242E0
2.881834029E0,-3.184471130E0,9.492368698E-1,-4.114317894E0,5.288621630E0
2.886575748E0,-3.095092773E0,1.287734032E0,-4.393080711E0,5.526030795E0
2.891317519E0,-3.035004616E0,1.625454783E0,-4.674672127E0,5.805679613E0
2.896059238E0,-2.978693962E0,1.843560219E0,-4.817333221E0,5.956343792E0
2.900801009E0,-2.867007256E0,2.045748949E0,-4.822444439E0,5.971665574E0
2.905542727E0,-2.748155594E0,2.199029207E0,-4.528333187E0,5.735319527E0
2.910284498E0,-2.610220909E0,2.289511919E0,-4.059729099E0,5.341958291E0
2.915026217E0,-2.493426323E0,2.281623125E0,-3.226988316E0,4.672946876E0
2.919767988E0,-2.219904900E0,2.223455906E0,-2.272109509E0,3.877398038E0
2.924509706E0,-1.977686882E0,2.165182114E0,-1.269275188E0,3.195358899E0
2.929251477E0,-1.763417244E0,2.118476868E0,-4.554779530E-1,2.793751023E0
2.933993196E0,-1.526297569E0,2.047326803E0,7.291817665E-2,2.554691443E0
2.938734967E0,-1.371489525E0,1.980393887E0,2.758584023E-1,2.424673446E0
2.943476738E0,-1.263211250E0,1.862748146E0,1.271543503E-1,2.254262972E0
2.948218456E0,-1.242152214E0,1.727923989E0,-1.386382580E-1,2.132576846E0
2.952960227E0,-1.336995125E0,1.625632048E0,-3.688886166E-1,2.136893617E0
2.957701946E0,-1.466579437E0,1.464365244E0,-6.745755672E-1,2.179512103E0
2.962443717E0,-1.590435982E0,1.346357584E0,-8.675656319E-1,2.257174225E0
2.967185436E0,-1.553516388E0,1.206667185E0,-1.087590456E0,2.247734829E0
2.971927206E0,-1.514132500E0,1.061976194E0,-1.440553784E0,2.344266595E0
2.976668925E0,-1.448854446E0,8.479605317E-1,-1.757680058E0,2.430566901E0
2.981410696E0,-1.351207733E0,5.791358948E-1,-1.837641239E0,2.353313844E0
2.986152467E0,-1.413208008E0,2.510014772E-1,-1.692418456E0,2.219107669E0
2.990894186E0,-1.498954773E0,-7.202982903E-3,-1.376737833E0,2.035270094E0
2.995635956E0,-1.532401085E0,-2.260664701E-1,-8.729226589E-1,1.778019433E0
3.000377675E0,-1.580605507E0,-4.291312695E-1,-2.352690697E-2,1.637992958E0
3.005119446E0,-1.598010063E0,-5.800288916E-1,7.101647854E-1,1.842390756E0
3.009861165E0,-1.754095078E0,-6.573041677E-1,1.362613678E0,2.316379577E0
3.014602936E0,-1.890317917E0,-8.316794634E-1,1.947029114E0,2.838294369E0
3.019344706E0,-2.230391502E0,-1.016726017E0,2.759170055E0,3.690717741E0
3.024086425E0,-2.106090546E0,-1.166310549E0,3.700186491E0,4.414439687E0
3.028828196E0,-1.388557434E0,-1.263846636E0,4.372101784E0,4.758221734E0
3.033569967E0,-3.251323700E-1,-1.212642312E0,4.694176674E0,4.859167324E0
3.038311686E0,6.865272522E-1,-1.140575409E0,4.879620552E0,5.057956965E0
3.043053456E0,1.423838139E0,-1.003610015E0,4.954513550E0,5.251833263E0
3.047795175E0,1.992082596E0,-8.896367550E-1,5.009361267E0,5.463839944E0
3.052536946E0,2.317319393E0,-7.745321989E-1,4.934053421E0,5.505883440E0
3.057278665E0,2.338288307E0,-6.826733351E-1,4.909171581E0,5.480292027E0
3.062020436E0,2.084955215E0,-5.384820700E-1,4.890807152E0,5.343874604E0
3.066762206E0,1.467499256E0,-2.621233463E-1,4.724325180E0,4.953938950E0
3.071503925E0,7.331676483E-1,6.601357460E-2,4.429572105E0,4.490323110E0
3.076245696E0,-2.650165558E-2,3.969953060E-1,4.048150063E0,4.067656148E0
3.080987467E0,-8.208065033E-1,7.947710752E-1,3.771690130E0,3.940942884E0
3.085729186E0,-1.436985970E0,1.096742630E0,3.439852476E0,3.885917926E0
3.090470956E0,-1.550738335E0,2.119774342E0,3.384561777E0,4.284097462E0
3.095212727E0,-1.330008507E0,4.566834450E0,3.522879601E0,5.919086095E0
3.099954446E0,-1.748330116E0,4.729945183E0,3.545560122E0,6.164416939E0
3.104696217E0,-1.953186035E0,4.329226494E0,3.151868105E0,5.700123707E0
3.109437988E0,-2.458130836E0,3.564680576E0,2.025340796E0,4.780309630E0
3.114179706E0,-3.165593147E0,2.555968046E0,1.268937826E0,4.261942730E0
3.118921477E0,-3.824480057E0,1.424196243E0,9.503431320E-1,4.190242799E0
3.123663248E0,-4.250583649E0,3.862731457E-1,8.612322807E-1,4.354123257E0
3.128404967E0,-4.291083336E0,-5.816121101E-1,8.848938942E-1,4.419808372E0
3.133146738E0,-4.133205414E0,-1.335447192E0,1.140705585E0,4.490881364E0
3.137888509E0,-3.978343010E0,-1.856018186E0,1.400895357E0,4.608093360E0
3.142630227E0,-3.802458763E0,-2.036098003E0,1.699526548E0,4.636030437E0
3.147371998E0,-3.652760506E0,-1.905442119E0,1.913899422E0,4.542728252E0
3.152113769E0,-3.504417419E0,-1.438665032E0,2.197043180E0,4.379234780E0
3.156855540E0,-3.085870743E0,-7.078235149E-1,2.378071785E0,3.959651220E0
3.161597259E0,-2.455481529E0,7.013130188E-2,2.502437592E0,3.506636827E0
3.166339029E0,-1.647803307E0,9.084395766E-1,2.531270981E0,3.154021398E0
3.171080800E0,-6.046838760E-1,1.617742300E0,2.362291336E0,2.926286571E0
3.175822519E0,5.615806580E-1,2.142682552E0,2.083020687E0,3.040630944E0
3.180564290E0,1.598962784E0,2.453996181E0,1.572335243E0,3.324307050E0
3.185306061E0,2.295864105E0,2.569103718E0,1.181006670E0,3.642260652E0
3.190047779E0,2.713539600E0,2.542778969E0,7.858443260E-1,3.800864816E0
3.194789550E0,2.949078560E0,2.465265512E0,3.404219151E-1,3.858819182E0
3.199531321E0,3.205094337E0,2.331054926E0,3.118515015E-4,3.963135990E0
3.204273092E0,3.442869663E0,2.122933865E0,-3.123910427E-1,4.056819921E0
3.209014811E0,3.760228634E0,1.879063725E0,-6.772639751E-1,4.257802996E0
3.213756581E0,4.106743813E0,1.625907660E0,-9.630861282E-1,4.520669790E0
3.218498352E0,4.434536934E0,1.389781594E0,-1.165335894E0,4.791097833E0
3.223240123E0,4.628807068E0,1.249328136E0,-1.167327404E0,4.934503920E0
3.227981842E0,4.797104359E0,1.144464254E0,-1.261638403E0,5.090554009E0
3.232723613E0,4.891444683E0,1.096444011E0,-1.403306723E0,5.205544190E0
3.237465384E0,4.931002617E0,1.052382827E0,-1.518359184E0,5.265710876E0
3.242207154E0,4.968454361E0,9.834805727E-1,-1.721585989E0,5.349451476E0
3.246948873E0,4.967975616E0,9.876762629E-1,-1.878908038E0,5.402460693E0
3.251690644E0,4.958399296E0,9.810514450E-1,-2.052302837E0,5.455284818E0
3.256432415E0,4.944724083E0,9.540061951E-1,-2.234042406E0,5.509207706E0
3.261174186E0,4.965649128E0,9.305593967E-1,-2.313023090E0,5.556409620E0
3.265915956E0,4.995306969E0,8.965669274E-1,-2.271452665E0,5.560253697E0
3.270657675E0,5.034202576E0,8.379704952E-1,-2.182353020E0,5.550500412E0
3.275399446E0,5.044553280E0,8.052030802E-1,-1.960981727E0,5.471866147E0
3.280141217E0,4.876152515E0,7.983889580E-1,-1.633011341E0,5.203942190E0
3.284882988E0,4.727868080E0,8.033853769E-1,-1.413330317E0,4.999566704E0
3.289624759E0,4.403556347E0,8.155950308E-1,-1.194397211E0,4.634985270E0
3.294366477E0,4.011111736E0,7.681949139E-1,-1.095615149E0,4.228417356E0
3.299108248E0,3.605688095E0,6.875544786E-1,-1.059298277E0,3.820449010E0
3.303850019E0,3.115648270E0,5.473122001E-1,-1.197601557E0,3.382464231E0
3.308591790E0,2.569777012E0,3.257900476E-1,-1.543841362E0,3.015516406E0
3.313333561E0,2.039833546E0,4.192566872E-2,-1.952019930E0,2.823660826E0
3.318075279E0,1.633210182E0,-2.446836829E-1,-2.286175966E0,2.820256398E0
3.322817050E0,1.258658409E0,-5.174737573E-1,-2.594738245E0,2.929960177E0
3.327558821E0,7.342443466E-1,-7.940240502E-1,-2.670318127E0,2.881004660E0
3.332300592E0,2.535905838E-1,-9.937273264E-1,-2.685995340E0,2.875130110E0
3.337042363E0,-2.551689148E-1,-1.165062189E0,-2.747327089E0,2.995043775E0
3.341784134E0,-6.317386627E-1,-1.303536892E0,-2.825433016E0,3.175117934E0
3.346525852E0,-9.288005829E-1,-1.366368175E0,-2.805355310E0,3.255710511E0
3.351267623E0,-1.285034180E0,-1.351462841E0,-2.660781622E0,3.249234293E0
3.356009394E0,-1.664383888E0,-1.228059173E0,-2.551877975E0,3.284872031E0
3.360751165E0,-2.016400337E0,-1.025005579E0,-2.461410046E0,3.342909836E0
3.365492936E0,-2.333494186E0,-7.374545336E-1,-2.385937691E0,3.417855025E0
3.370234706E0,-2.720381737E0,-3.845031261E-1,-2.281245947E0,3.571050618E0
3.374976477E0,-3.109412193E0,1.230937243E-2,-2.193822622E0,3.805450487E0
3.379718196E0,-3.440161705E0,4.602991641E-1,-2.100621939E0,4.056994011E0
3.384459967E0,-3.724208832E0,9.166749120E-1,-2.029175282E0,4.339075551E0
3.389201738E0,-3.882472038E0,1.372219324E0,-1.976290226E0,4.567526471E0
3.393943509E0,-3.996462822E0,1.774652243E0,-1.936993837E0,4.782577840E0
3.398685279E0,-4.088150978E0,2.191347122E0,-1.878336668E0,5.004311068E0
3.403427050E0,-4.084069252E0,2.596332788E0,-1.799012423E0,5.163042833E0
3.408168821E0,-4.030669212E0,2.963500023E0,-1.643453360E0,5.265886975E0
3.412910592E0,-3.993439674E0,3.340459108E0,-1.401747942E0,5.391764533E0
3.417652363E0,-3.853758812E0,3.726767063E0,-1.107374907E0,5.474169244E0
3.422394081E0,-3.612620354E0,4.052690029E0,-8.248043060E-1,5.491413701E0
3.427135852E0,-3.187362671E0,4.296503067E0,-5.683925152E-1,5.379803849E0
3.431877623E0,-2.657852173E0,4.455839634E0,-3.521671295E-1,5.200260253E0
3.436619394E0,-1.897923470E0,4.437866211E0,-3.628706932E-2,4.826809169E0
3.441361165E0,-1.101771355E0,4.279001713E0,3.974282742E-1,4.436406768E0
3.446102936E0,-3.818635941E-1,4.101582527E0,8.385205269E-1,4.203797772E0
3.450844706E0,1.185388565E-1,3.871814966E0,1.322791100E0,4.093260178E0
3.455586477E0,2.972211838E-1,3.706302643E0,1.735931873E0,4.103471601E0
3.460328248E0,3.056344986E-1,3.668940306E0,1.885254860E0,4.136269007E0
3.465070019E0,8.228778839E-2,3.718256474E0,1.829537868E0,4.144805339E0
3.469811790E0,-2.954635620E-1,3.891928434E0,1.594323874E0,4.216191916E0
3.474553509E0,-7.548933029E-1,4.148848057E0,1.179545879E0,4.378827763E0
3.479295279E0,-1.309246063E0,4.402601719E0,8.151478767E-1,4.664921565E0
3.484037102E0,-1.796939850E0,4.586486340E0,4.231135845E-1,4.944074724E0
3.488778821E0,-2.104320526E0,4.720491886E0,-5.974745750E-2,5.168634083E0
3.493520592E0,-2.184981346E0,4.786976814E0,-6.418077946E-1,5.301057229E0
3.498262363E0,-1.758807182E0,4.620935917E0,-1.342075586E0,5.123242951E0
3.503004134E0,-1.259327888E0,4.234112263E0,-2.076359510E0,4.881073878E0
3.507745904E0,-9.316749573E-1,3.754316568E0,-2.450304985E0,4.578963381E0
3.512487675E0,-6.103668213E-1,3.193576336E0,-2.350156307E0,4.011821549E0
3.517229446E0,-1.638021469E-1,2.577844381E0,-1.887890816E0,3.199413154E0
3.521971217E0,2.817029953E-1,1.973336458E0,-1.246159077E0,2.350813859E0
3.526712988E0,5.600461960E-1,1.412523627E0,-4.551091194E-1,1.586190105E0
3.531454759E0,4.821395874E-1,9.824015498E-1,5.525772572E-1,1.225933527E0
3.536196529E0,2.971296310E-1,7.891170382E-1,1.941163540E0,2.116390230E0
3.540938300E0,1.227655411E-1,7.979261875E-1,3.622692108E0,3.711557044E0
3.545680071E0,-1.648292542E-1,9.168456793E-1,5.425812721E0,5.505199212E0
3.550421842E0,-4.071750641E-1,1.142673612E0,6.892823696E0,6.998750819E0
3.555163613E0,-6.371488571E-1,1.432129025E0,8.014246941E0,8.166094920E0
3.559905384E0,-8.299875259E-1,1.677784443E0,8.671231270E0,8.870969038E0
3.564647154E0,-9.798288345E-1,1.818023562E0,8.860443115E0,9.097951770E0
3.569388925E0,-1.434898376E0,1.946087837E0,8.886026382E0,9.209107236E0
3.574130696E0,-1.924098015E0,2.094898701E0,8.756440163E0,9.206845174E0
3.578872467E0,-2.552284241E0,2.294665098E0,8.548790932E0,9.212028504E0
3.583614238E0,-2.752036095E0,2.378368855E0,7.999243259E0,8.787390614E0
3.588356009E0,-2.329116821E0,2.285909176E0,7.001368523E0,7.724592359E0
3.593097779E0,-1.809208870E0,2.091191769E0,5.833732605E0,6.455908600E0
3.597839550E0,-1.321097374E0,1.781644106E0,4.397443295E0,4.925145837E0
3.602581321E0,-1.127744675E0,1.403661251E0,2.951185465E0,3.457104078E0
3.607323092E0,-1.245769501E0,1.019482255E0,1.891284943E0,2.483595066E0
3.612064863E0,-1.515089035E0,7.074752450E-1,1.244743347E0,2.084562785E0
3.616806634E0,-1.788137436E0,4.284388125E-1,1.178736687E0,2.184128083E0
3.621548404E0,-1.865224838E0,2.247492671E-1,1.431571960E0,2.361985226E0
3.626290227E0,-1.716598511E0,1.224932075E-1,1.981211185E0,2.624292818E0
3.631031998E0,-1.293137550E0,9.547841549E-2,2.648507357E0,2.948883190E0
3.635773769E0,-8.061857224E-1,1.997429132E-2,3.020784616E0,3.126575457E0
3.640515540E0,-3.637123108E-1,-9.363406897E-2,3.152826786E0,3.175117435E0
3.645257311E0,-3.747940063E-2,-2.711907625E-1,3.202596903E0,3.214276910E0
3.649999081E0,1.720619202E-2,-5.698691607E-1,3.040973186E0,3.093956178E0
3.654740852E0,-1.586313248E-1,-9.588143229E-1,2.842706919E0,3.004242239E0
3.659482623E0,-4.569883347E-1,-1.414764047E0,2.720285177E0,3.100055982E0
3.664224394E0,-7.796783447E-1,-1.828709364E0,2.713899136E0,3.364123181E0
3.668966165E0,-1.100446701E0,-2.173190594E0,2.820371389E0,3.726692243E0
3.673707936E0,-1.378934860E0,-2.432554245E0,2.839842319E0,3.985409126E0
3.678449706E0,-1.469636917E0,-2.562066078E0,2.677989483E0,3.986934026E0
3.683191477E0,-1.329823494E0,-2.624196053E0,2.387216806E0,3.788619739E0
3.687933248E0,-1.040977478E0,-2.561453581E0,2.020520687E0,3.424497394E0
3.692675071E0,-5.672121048E-1,-2.426216125E0,1.647994995E0,2.987330207E0
3.697416842E0,8.199310303E-2,-2.249086142E0,1.330510139E0,2.614453781E0
3.702158613E0,7.393665314E-1,-2.029499054E0,1.121748447E0,2.433895819E0
3.706900384E0,1.390927315E0,-1.728695512E0,9.511778355E-1,2.414084970E0
3.711642154E0,1.891312599E0,-1.399192929E0,8.657219410E-1,2.506846362E0
3.716383925E0,2.317615509E0,-1.045959949E0,8.425190449E-1,2.678658658E0
3.721125696E0,2.679694653E0,-6.214851141E-1,9.083623886E-1,2.896917225E0
3.725867467E0,3.118690968E0,-2.598288059E-1,9.459633827E-1,3.269341077E0
3.730609238E0,3.550601482E0,1.012921333E-1,9.786558151E-1,3.684399298E0
3.735351061E0,3.960710049E0,4.165176153E-1,9.885809422E-1,4.103413615E0
3.740092831E0,4.305593014E0,6.907006502E-1,1.005532503E0,4.475074771E0
3.744834602E0,4.534846306E0,9.835439324E-1,1.059606075E0,4.759722126E0
3.749576373E0,4.722509861E0,1.242409348E0,1.114074469E0,5.008676701E0
3.754318144E0,4.760865688E0,1.512714744E0,9.793674946E-1,5.090511633E0
3.759059915E0,4.712098598E0,1.682152271E0,7.507557869E-1,5.059361987E0
3.763801686E0,4.796102047E0,1.796797633E0,5.259006023E-1,5.148557859E0
3.768543509E0,4.909805775E0,1.869328260E0,3.095238209E-1,5.262735590E0
3.773285279E0,4.871564388E0,1.931343317E0,1.858546734E-1,5.243736126E0
3.778027050E0,4.760597229E0,1.971177101E0,1.385812759E-1,5.154418484E0
3.782768821E0,4.603367329E0,1.972233534E0,2.874569893E-1,5.016306150E0
3.787510592E0,4.471708775E0,1.900890112E0,5.151476860E-1,4.886198903E0
3.792252363E0,4.246059895E0,1.850132108E0,8.645195961E-1,4.711624728E0
3.796994186E0,4.034080029E0,1.778947592E0,1.074460030E0,4.537942327E0
3.801735956E0,3.773551941E0,1.615309358E0,1.197524309E0,4.275860503E0
3.806477727E0,3.531548977E0,1.418714762E0,1.238655329E0,4.002356403E0
3.811219498E0,3.334418774E0,1.181629062E0,1.198023796E0,3.734950711E0
3.815961269E0,3.129572392E0,8.966071606E-1,1.056715965E0,3.422685552E0
3.820703040E0,2.819225788E0,6.636594534E-1,9.015424252E-1,3.033357325E0
3.825444863E0,2.640521049E0,3.725378513E-1,8.744850159E-1,2.806396249E0
3.830186634E0,2.481137753E0,1.427699327E-1,9.760849476E-1,2.670050491E0
3.834928404E0,2.290912628E0,-2.592194080E-2,9.934978485E-1,2.497196547E0
3.839670175E0,2.136784077E0,-1.837722063E-1,9.290728569E-1,2.337262242E0
3.844411946E0,1.868059158E0,-3.237900734E-1,8.617081642E-1,2.082552758E0
3.849153769E0,1.602019310E0,-4.412447214E-1,7.841167450E-1,1.837389954E0
3.853895540E0,1.336281776E0,-5.243105888E-1,6.723864079E-1,1.585135345E0
3.858637311E0,1.125807762E0,-6.136116982E-1,5.575687885E-1,1.398157855E0
3.863379081E0,9.179468155E-1,-6.971672773E-1,4.038875103E-1,1.221390064E0
3.868120852E0,4.572610855E-1,-5.528447628E-1,1.336436272E-1,7.297846608E-1
3.872862675E0,3.800611496E-1,-5.081536770E-1,8.176851273E-2,6.398067884E-1
3.877604446E0,3.342065811E-1,-4.140164852E-1,-5.582499504E-2,5.349954383E-1
3.882346217E0,2.216157913E-1,-2.436817884E-1,-8.751249313E-2,3.408119855E-1
3.887087988E0,1.261062622E-1,-7.066142559E-2,-1.372697353E-1,1.993459472E-1
3.891829811E0,-4.784107208E-2,2.165877819E-2,-8.972740173E-2,1.039657514E-1
3.896571581E0,-2.234230042E-1,1.104369164E-1,-7.569909096E-2,2.604697749E-1
3.901313352E0,-2.856960297E-1,1.219550371E-1,-1.494650841E-1,3.447246202E-1
3.906055123E0,-3.016738892E-1,9.967601299E-2,-1.981549263E-1,3.744433439E-1
3.910796946E0,-2.714672089E-1,-4.050016403E-3,-1.860382557E-1,3.291216807E-1
3.915538717E0,-2.023372650E-1,-1.414424181E-1,-1.348688602E-1,2.813111017E-1
3.920280488E0,-6.585597992E-2,-3.414185047E-1,-1.004352570E-1,3.619265758E-1
3.925022259E0,3.745079041E-3,-5.924067497E-1,-7.410597801E-2,5.970355758E-1
3.929764081E0,9.482097626E-2,-8.877632618E-1,-5.913925171E-2,8.947692874E-1
3.934505852E0,1.307086945E-1,-1.156380177E0,-9.688401222E-2,1.167769835E0
3.939247623E0,1.449384689E-1,-1.374928236E0,-2.258775234E-1,1.400876679E0
3.943989394E0,1.735363007E-1,-1.543833137E0,-3.836636543E-1,1.600229171E0
3.948731217E0,1.210432053E-1,-1.670601010E0,-5.315148830E-1,1.757289750E0
3.953472988E0,1.887798309E-2,-1.753229976E0,-6.546168327E-1,1.871548803E0
3.958214759E0,-2.044067383E-1,-1.775398374E0,-7.501847744E-1,1.938194700E0
3.962956529E0,-4.766502380E-1,-1.756561279E0,-8.152079582E-1,1.994308650E0
3.967698352E0,-8.070917130E-1,-1.706581354E0,-9.327824116E-1,2.105682782E0
3.972440123E0,-1.061714172E0,-1.551285744E0,-1.014200926E0,2.135960665E0
3.977181894E0,-1.321887016E0,-1.402979255E0,-1.114284754E0,2.226514448E0
3.981923665E0,-1.463224411E0,-1.203862190E0,-1.196731210E0,2.241088003E0
3.986665488E0,-1.533547401E0,-1.025195122E0,-1.361152649E0,2.292494101E0
3.991407259E0,-1.504122734E0,-9.045573473E-1,-1.463082433E0,2.284998774E0
3.996149029E0,-1.422801971E0,-7.887377739E-1,-1.559212923E0,2.253356977E0
4.000890852E0,-1.356592178E0,-7.276402712E-1,-1.574986219E0,2.202358802E0
4.005632623E0,-1.298350334E0,-7.042866945E-1,-1.589190841E0,2.169622287E0
4.010374394E0,-1.281656265E0,-6.974297762E-1,-1.527959466E0,2.112749679E0
4.015116217E0,-1.328351021E0,-6.645970345E-1,-1.378312349E0,2.026314533E0
4.019857988E0,-1.367141724E0,-6.182950735E-1,-1.268918872E0,1.965075162E0
4.024599759E0,-1.360337257E0,-4.991744757E-1,-1.196968913E0,1.879475243E0
4.029341529E0,-1.296623230E0,-3.696001768E-1,-1.207589507E0,1.810002351E0
4.034083352E0,-1.140702248E0,-1.646609306E-1,-1.302320242E0,1.739066661E0
4.038825123E0,-9.241762161E-1,1.209406853E-1,-1.484727502E0,1.753038529E0
4.043566894E0,-6.545162201E-1,3.850398064E-1,-1.693102002E0,1.855597350E0
4.048308717E0,-5.183553696E-1,6.591135263E-1,-1.925264359E0,2.099944233E0
4.053050488E0,-4.891386032E-1,8.475949764E-1,-2.176296473E0,2.386197845E0
4.057792259E0,-5.521697998E-1,9.505937696E-1,-2.426411152E0,2.663830152E0
4.062534081E0,-6.089611053E-1,1.003837109E0,-2.672227859E0,2.918788156E0
4.067275852E0,-7.140893936E-1,9.833440781E-1,-2.842872620E0,3.091733166E0
4.072017623E0,-8.264141083E-1,9.413088560E-1,-2.915568352E0,3.173257231E0
4.076759446E0,-1.038794518E0,9.296504259E-1,-2.865475655E0,3.186580407E0
4.081501217E0,-1.216845512E0,8.831264377E-1,-2.729956150E0,3.116614491E0
4.086242988E0,-1.350814819E0,8.107648492E-1,-2.654346943E0,3.086680743E0
4.090984811E0,-1.404708862E0,8.006725311E-1,-2.559036970E0,3.027037116E0
4.095726581E0,-1.392869949E0,8.191268444E-1,-2.472211599E0,2.953453178E0
4.100468352E0,-1.258005142E0,8.110010624E-1,-2.534797668E0,2.943721944E0
4.105210175E0,-1.021961212E0,8.124991655E-1,-2.665548086E0,2.968114926E0
4.109951946E0,-6.277923584E-1,8.049733639E-1,-2.841260910E0,3.019084120E0
4.114693717E0,-1.000976562E-1,7.628963590E-1,-2.989266872E0,3.086704850E0
4.119435540E0,4.838056564E-1,6.776486635E-1,-3.128734589E0,3.237631194E0
4.124177311E0,1.027605057E0,5.069503784E-1,-3.164320707E0,3.365396912E0
4.128919081E0,1.392175674E0,2.585794926E-1,-3.041406631E0,3.354872689E0
4.133660904E0,1.517807007E0,-6.730234623E-2,-2.560719252E0,2.977507481E0
4.138402675E0,1.469436646E0,-3.893029690E-1,-1.897319317E0,2.431176967E0
4.143144446E0,1.433760643E0,-6.257377863E-1,-1.338550568E0,2.058867402E0
4.147886269E0,1.293499947E0,-7.426058054E-1,-8.797155619E-1,1.731619174E0
4.152628040E0,9.650278091E-1,-7.179069519E-1,-3.747509718E-1,1.259804491E0
4.157369811E0,6.444988251E-1,-5.607815981E-1,1.114408970E-1,8.615531381E-1
4.162111634E0,3.172721863E-1,-4.212036133E-1,5.184407234E-1,7.394963879E-1
4.166853404E0,-1.101188660E-1,-3.033255339E-1,8.556207418E-1,9.144503256E-1
4.171595227E0,-6.041879654E-1,-2.741496563E-1,1.067968130E0,1.257281615E0
4.176336998E0,-1.167066574E0,-3.224813938E-1,1.280880332E0,1.762581363E0
4.181078769E0,-1.726472855E0,-4.665501118E-1,1.668338656E0,2.445757837E0
4.185820592E0,-2.133487701E0,-6.312737465E-1,2.206537724E0,3.133541932E0
4.190562363E0,-2.320636749E0,-8.345657587E-1,2.711663961E0,3.665375338E0
4.195304134E0,-2.242114067E0,-1.107852697E0,3.172268152E0,4.039517090E0
4.200045956E0,-2.081779480E0,-1.434428453E0,3.609955072E0,4.407172156E0
4.204787727E0,-2.147437096E0,-1.779082179E0,4.304519176E0,5.128889238E0
4.209529550E0,-2.292220116E0,-2.135444641E0,5.245656967E0,6.109935670E0
4.214271321E0,-2.532125473E0,-2.420670986E0,6.271967888E0,7.183932671E0
4.219013092E0,-2.716217995E0,-2.549072504E0,6.929015160E0,7.866820317E0
4.223754915E0,-2.938064575E0,-2.516223431E0,7.002935886E0,8.000294671E0
4.228496686E0,-3.410720825E0,-2.377985001E0,6.667068005E0,7.857329380E0
4.233238509E0,-3.911653519E0,-2.132990360E0,6.231385708E0,7.660342614E0
4.237980279E0,-4.431392670E0,-1.839496374E0,5.702136993E0,7.452204653E0
4.242722102E0,-4.762138367E0,-1.540751219E0,5.035387993E0,7.099789319E0
4.247463873E0,-5.172132492E0,-1.241969347E0,4.278218269E0,6.826169785E0
4.252205644E0,-5.692316055E0,-9.391651154E-1,3.829971552E0,6.924823122E0
4.256947467E0,-5.943377495E0,-6.846883297E-1,2.493515730E0,6.481524115E0
4.261689238E0,-6.137394905E0,-5.110114813E-1,9.470148087E-1,6.231018055E0
4.266431009E0,-6.169951439E0,-4.767649174E-1,-4.360604286E-2,6.188497962E0
4.271172831E0,-6.051190376E0,-5.686526299E-1,-8.165655136E-1,6.132458726E0
4.275914602E0,-5.757564545E0,-7.708997726E-1,-1.307080746E0,5.954183069E0
4.280656425E0,-5.284486771E0,-1.029422760E0,-1.313418984E0,5.541712829E0
4.285398196E0,-4.667638779E0,-1.328519583E0,-7.402907610E-1,4.909159445E0
4.290140019E0,-3.961553574E0,-1.545400023E0,3.477075100E-1,4.266505416E0
4.294881790E0,-3.383402824E0,-1.500751972E0,1.641190767E0,4.048849008E0
4.299623561E0,-2.949492455E0,-1.219089746E0,2.724689960E0,4.196381886E0
4.304365384E0,-2.511391640E0,-6.700922251E-1,3.426053524E0,4.300459779E0
4.309107154E0,-1.856409073E0,-7.168805599E-2,3.606627226E0,4.056988263E0
4.313848977E0,-1.104459763E0,4.974387288E-1,3.417448997E0,3.625773615E0
4.318590748E0,-4.397153854E-1,9.706084132E-1,3.124670506E0,3.301362761E0
4.323332571E0,2.601881027E-1,1.264520168E0,2.765418053E0,3.051924984E0
4.328074342E0,8.594894409E-1,1.456314087E0,2.394413233E0,2.931345689E0
4.332816113E0,1.399679184E0,1.524868488E0,1.980641127E0,2.864832455E0
4.337557936E0,2.077427387E0,1.521144152E0,1.473332644E0,2.966528806E0
4.342299706E0,2.667954445E0,1.398139000E0,9.496433735E-1,3.158258400E0
4.347041529E0,3.185433865E0,1.168112874E0,4.826228619E-1,3.427010566E0
4.351783300E0,3.285150051E0,9.620712996E-1,-3.728914261E-2,3.423329158E0
4.356525123E0,3.313588619E0,7.457213402E-1,-5.434775352E-1,3.439671160E0
4.361266894E0,3.360924244E0,4.537858963E-1,-9.169403315E-1,3.513191282E0
4.366008717E0,3.374097824E0,2.363105565E-1,-1.149965525E0,3.572506055E0
4.370750488E0,3.379290104E0,6.397077441E-2,-1.315154910E0,3.626751481E0
4.375492259E0,3.570194721E0,-1.540681720E-1,-1.403032780E0,3.839079099E0
4.380234081E0,3.827047825E0,-3.505198956E-1,-1.363406301E0,4.077748888E0
4.384975852E0,4.104344845E0,-4.390174150E-1,-1.100794673E0,4.272017300E0
4.389717675E0,4.511985779E0,-4.527251124E-1,-8.333673477E-1,4.610583134E0
4.394459446E0,4.985209942E0,-4.604557157E-1,-4.442191124E-1,5.026098711E0
4.399201269E0,5.504822731E0,-4.137608111E-1,-1.296386719E-1,5.521872644E0
4.403943040E0,5.958442211E0,-2.906840444E-1,2.013912201E-1,5.968926974E0
4.408684863E0,6.408414841E0,-1.694826484E-1,4.055395126E-1,6.423470046E0
4.413426634E0,6.828583241E0,-3.748452663E-2,5.335021019E-1,6.849494774E0
4.418168456E0,7.128250599E0,8.661180735E-2,5.904235840E-1,7.153185180E0
4.422910227E0,7.247876167E0,1.814668179E-1,5.239336491E-1,7.269053969E0
4.427651998E0,7.350279808E0,2.353282273E-1,3.411850929E-1,7.361956255E0
4.432393821E0,7.361255646E0,2.100175321E-1,2.025103569E-2,7.364278794E0
4.437135592E0,7.340619087E0,1.390884817E-1,-3.840961456E-1,7.351976880E0
4.441877415E0,7.161638737E0,1.131010354E-1,-7.093386650E-1,7.197570603E0
4.446619186E0,6.874741554E0,4.534769058E-2,-9.339332581E-1,6.938037127E0
4.451361009E0,6.444187164E0,-7.299393415E-3,-1.194242477E0,6.553916126E0
4.456102779E0,6.035103798E0,-5.254814029E-2,-1.418533683E0,6.199796526E0
4.460844602E0,5.527815819E0,-1.172089875E-1,-1.525785446E0,5.735722003E0
4.465586373E0,4.817145824E0,-1.348149478E-1,-1.626333117E0,5.086062168E0
4.470328196E0,4.192792892E0,-1.391970962E-1,-1.702883005E0,4.527548851E0
4.475069967E0,3.628686428E0,-9.934300184E-2,-1.694352865E0,4.006003727E0
4.479811790E0,3.213615417E0,-7.280197740E-2,-1.637629986E0,3.607555426E0
4.484553561E0,2.844875336E0,-3.330418468E-2,-1.581892610E0,3.255274040E0
4.489295384E0,2.426900387E0,-2.514094114E-3,-1.536236405E0,2.872259407E0
4.494037154E0,2.065045357E0,2.658298612E-2,-1.514719725E0,2.561151074E0
4.498778925E0,1.720999718E0,5.158197880E-2,-1.529237032E0,2.302838820E0
4.503520748E0,1.409063339E0,5.816999078E-2,-1.637267351E0,2.160899725E0
4.508262519E0,1.002398491E0,8.234921098E-2,-1.767235279E0,2.033397319E0
4.513004342E0,4.484004974E-1,9.998169541E-2,-1.936260819E0,1.990016409E0
4.517746165E0,-1.069097519E-1,1.347469091E-1,-2.058270454E0,2.065445155E0
4.522487936E0,-7.233037949E-1,1.768304408E-1,-2.169161558E0,2.293403421E0
4.527229706E0,-1.252403259E0,1.735641062E-1,-2.285498381E0,2.611922907E0
4.531971529E0,-1.643998146E0,2.062878609E-1,-2.404528141E0,2.920109616E0
4.536713300E0,-1.938843727E0,2.128009200E-1,-2.444720745E0,3.127468425E0
4.541455123E0,-2.050979614E0,1.764173210E-1,-2.425314426E0,3.181161819E0
4.546196894E0,-2.054814339E0,1.712357700E-1,-2.372853756E0,3.143567814E0
4.550938717E0,-2.005600929E0,1.777589917E-1,-2.254296303E0,3.022562682E0
4.555680488E0,-2.004036903E0,1.595920622E-1,-2.185162783E0,2.969270941E0
4.560422311E0,-1.988017082E0,1.953477114E-1,-2.115581989E0,2.909649429E0
4.565164081E0,-1.797490120E0,1.918284446E-1,-2.062782526E0,2.742779727E0
4.569905904E0,-1.585903168E0,2.091653645E-1,-2.020310402E0,2.576915429E0
4.574647675E0,-1.594970703E0,1.900146753E-1,-2.034246445E0,2.591948248E0
4.579389498E0,-1.788551331E0,1.461403966E-1,-2.004103184E0,2.690111977E0
4.584131269E0,-2.041989326E0,1.131782979E-1,-1.905705690E0,2.795396915E0
4.588873092E0,-2.388555527E0,5.033658445E-2,-1.757807374E0,2.966077888E0
4.593614863E0,-2.746685028E0,-4.261073470E-2,-1.598185062E0,3.178095312E0
4.598356686E0,-3.003831863E0,-1.202935427E-1,-1.431095243E0,3.329490951E0
4.603098456E0,-3.190914154E0,-1.660121977E-1,-1.226818442E0,3.422656378E0
4.607840279E0,-3.257459641E0,-2.516415119E-1,-1.020015121E0,3.422688652E0
4.612582050E0,-3.306198120E0,-2.483513504E-1,-8.552186489E-1,3.424036118E0
4.617323873E0,-3.272665024E0,-1.470936537E-1,-8.855991364E-1,3.393561364E0
4.622065644E0,-3.245821953E0,6.591250002E-2,-1.088289261E0,3.424044118E0
4.626807467E0,-3.178252220E0,3.804313242E-1,-1.399919033E0,3.493678358E0
4.631549238E0,-3.166049957E0,6.906835437E-1,-1.563466311E0,3.597963729E0
4.636291061E0,-3.142648697E0,1.118543625E0,-1.750486374E0,3.767171780E0
4.641032831E0,-2.876645088E0,1.568844795E0,-2.029834509E0,3.854424612E0
4.645774654E0,-2.751329422E0,1.920163870E0,-2.297736406E0,4.066501625E0
4.650516425E0,-2.773788452E0,2.230236053E0,-2.262768745E0,4.217579593E0
4.655258248E0,-2.785810471E0,2.446748018E0,-1.967486858E0,4.197418299E0
4.660000019E0,-2.799008369E0,2.603788853E0,-1.628426313E0,4.155230018E0
4.664741842E0,-2.691181183E0,2.721214294E0,-1.369032264E0,4.064690976E0
4.669483613E0,-2.409613609E0,2.848027468E0,-1.087916613E0,3.886008332E0
4.674225436E0,-1.995127678E0,2.956813574E0,-7.540822029E-1,3.645808680E0
4.678967206E0,-1.584325790E0,3.051105976E0,-2.870411873E-1,3.449888191E0
4.683709029E0,-1.103405952E0,3.129505396E0,2.231719494E-1,3.325825377E0
4.688450800E0,-6.340284348E-1,3.190539837E0,7.442646027E-1,3.336984613E0
4.693192623E0,-2.864446640E-1,3.165606499E0,1.265632153E0,3.421248280E0
4.697934394E0,-2.041549683E-1,3.069248676E0,1.868083715E0,3.598847518E0
4.702676217E0,-3.965911865E-1,2.855691433E0,2.501021385E0,3.816721905E0
4.707417988E0,-8.445644379E-1,2.624836683E0,3.087500334E0,4.139530772E0
4.712159811E0,-1.483337402E0,2.361297846E0,3.563292980E0,4.524718138E0
4.716901581E0,-2.228825569E0,2.106955051E0,4.044589043E0,5.075984981E0
4.721643404E0,-2.977467537E0,1.906160593E0,4.603255272E0,5.804198501E0
4.726385175E0,-3.651662827E0,1.743650198E0,5.290654182E0,6.660779165E0
4.731126998E0,-3.951004028E0,1.638411999E0,5.917542458E0,7.301515969E0
4.735868769E0,-4.000833511E0,1.755876064E0,6.321339607E0,7.684341479E0
4.740610592E0,-3.656336784E0,1.915167332E0,6.372140884E0,7.592156745E0
4.745352363E0,-2.825828552E0,1.943451881E0,5.972499371E0,6.887166395E0
4.750094186E0,-1.734179497E0,1.823257327E0,5.513252258E0,6.060329716E0
4.754835956E0,-7.143974304E-1,1.601224184E0,5.072070599E0,5.366580171E0
4.759577779E0,7.905960083E-3,1.258796811E0,4.342694283E0,4.521462766E0
4.764319550E0,3.336544037E-1,8.436059356E-1,3.439120054E0,3.556760181E0
4.769061373E0,3.885469437E-1,4.001439810E-1,2.652013302E0,2.710029241E0
4.773803196E0,2.888813019E-1,-6.553062797E-2,1.968819380E0,1.990978759E0
4.778544967E0,1.246824265E-1,-5.639936328E-1,1.525590658E0,1.631275998E0
4.783286790E0,-1.634407043E-2,-1.074638724E0,1.339013577E0,1.716995304E0
4.788028561E0,2.776050568E-2,-1.588046193E0,1.258826494E0,2.026648835E0
4.792770384E0,1.321144104E-1,-2.082520962E0,1.470451593E0,2.552758442E0
4.797512154E0,1.960935593E-1,-2.531620026E0,1.870312691E0,3.153668055E0
4.802253977E0,5.231094360E-2,-2.947584152E0,2.486730099E0,3.856788217E0
4.806995748E0,-2.103366852E-1,-3.283164740E0,3.104756594E0,4.523596549E0
4.811737571E0,-4.285812378E-1,-3.505529881E0,3.668595552E0,5.092250480E0
4.816479342E0,-6.611919403E-1,-3.622527599E0,4.322467804E0,5.678345613E0
4.821221165E0,-1.406859398E0,-3.717176199E0,4.954492569E0,6.351665047E0
4.825962936E0,-2.131625175E0,-3.843877316E0,4.615679741E0,6.373673837E0
4.830704759E0,-2.543852806E0,-3.852749825E0,3.837798834E0,6.003629585E0
4.835446529E0,-2.598578453E0,-3.669565201E0,2.876888752E0,5.338052794E0
4.840188352E0,-2.363057137E0,-3.360785007E0,2.025215864E0,4.580438210E0
4.844930123E0,-1.854213715E0,-2.992560148E0,1.292686224E0,3.750274978E0
4.849671946E0,-1.490647316E0,-2.525962830E0,6.175513268E-1,2.997313343E0
4.854413717E0,-1.159689903E0,-2.039536476E0,4.554986954E-2,2.346628326E0
4.859155540E0,-6.819753647E-1,-1.613857269E0,-3.994345665E-1,1.796990166E0
4.863897311E0,1.308622360E-1,-1.312391281E0,-6.394987106E-1,1.465760690E0
4.868639134E0,7.351016998E-1,-9.385526180E-1,-6.332998276E-1,1.349934886E0
4.873380904E0,9.154691696E-1,-4.332863092E-1,-6.069004536E-1,1.180740864E0
4.878122727E0,8.736581802E-1,3.265658021E-2,-5.952286720E-1,1.057658849E0
4.882864498E0,7.612266541E-1,4.422161579E-1,-5.818541050E-1,1.055260797E0
4.887606321E0,8.417806625E-1,7.858744860E-1,-6.056199074E-1,1.301141370E0
4.892348092E0,1.260923386E0,1.090320587E0,-7.187774181E-1,1.815314778E0
4.897089915E0,1.802627087E0,1.337057352E0,-8.623653650E-1,2.404342072E0
4.901831686E0,2.552269459E0,1.507586718E0,-9.612975121E-1,3.116246140E0
4.906573509E0,3.131033421E0,1.602146506E0,-9.176130295E-1,3.634866900E0
4.911315279E0,3.576631546E0,1.615899205E0,-7.365918159E-1,3.993243163E0
4.916057102E0,4.027456760E0,1.546607494E0,-7.215303183E-1,4.374129479E0
4.920798873E0,4.497550488E0,1.404030204E0,-6.081904173E-1,4.750700663E0
4.925540696E0,5.008079529E0,1.192979813E0,-4.031283855E-1,5.163968812E0
4.930282467E0,5.365023613E0,9.804151654E-1,-2.204334736E-1,5.458322378E0
4.935024290E0,5.628281593E0,7.946948409E-1,-1.828434467E-1,5.687048910E0
4.939766061E0,5.812468052E0,5.567193627E-1,-5.802822113E-2,5.839356863E0
4.944507884E0,5.953881741E0,3.427743018E-1,2.102732658E-2,5.963777675E0
4.949249654E0,6.017072678E0,1.429537535E-1,9.149384499E-2,6.019465965E0
4.953991477E0,6.033593178E0,-6.711184978E-2,2.575268745E-1,6.039459473E0
4.958733248E0,5.970320702E0,-2.281291485E-1,4.100272655E-1,5.988730629E0
4.963475071E0,5.834856987E0,-3.931510448E-1,5.167467594E-1,5.870873105E0
4.968216842E0,5.677737713E0,-5.361126661E-1,5.140304565E-1,5.726111214E0
4.972958665E0,5.391538620E0,-6.861042380E-1,4.454910755E-1,5.453245824E0
4.977700436E0,5.110450268E0,-8.409615755E-1,3.666141033E-1,5.192140619E0
4.982442259E0,4.856090546E0,-9.529193640E-1,2.538483143E-1,4.955210356E0
4.987184029E0,4.578243732E0,-1.033800602E0,1.145546436E-1,4.694910236E0
4.991925852E0,4.327140331E0,-1.131127596E0,-4.641199112E-2,4.472778461E0
4.996667623E0,4.057291031E0,-1.191853523E0,-1.859641075E-1,4.232813246E0
5.001409446E0,3.792680264E0,-1.253941059E0,-2.583858967E-1,4.002943296E0
5.006151217E0,3.495162010E0,-1.288442850E0,-2.871003151E-1,3.736130223E0
5.010893040E0,3.217456341E0,-1.330950975E0,-3.291425705E-1,3.497397695E0
5.015634811E0,2.868793011E0,-1.350316048E0,-3.720391989E-1,3.192450459E0
5.020376634E0,2.480478287E0,-1.391991138E0,-4.343677759E-1,2.877340304E0
5.025118404E0,2.050280571E0,-1.434494376E0,-5.563203096E-1,2.563379961E0
5.029860227E0,1.647703171E0,-1.513705730E0,-7.301946878E-1,2.353596197E0
5.034601998E0,1.213004112E0,-1.548334479E0,-9.866982698E-1,2.200520873E0
5.039343821E0,7.916707993E-1,-1.583998203E0,-1.256315470E0,2.171202782E0
5.044085592E0,3.334150314E-1,-1.649583578E0,-1.560800552E0,2.295297351E0
5.048827415E0,-7.581233978E-2,-1.721326828E0,-1.943898082E0,2.597586055E0
5.053569186E0,-3.693637848E-1,-1.753980398E0,-2.327649593E0,2.937827339E0
5.058311009E0,-5.787496567E-1,-1.819379568E0,-2.749121189E0,3.347052508E0
5.063052779E0,-7.091817856E-1,-1.890940428E0,-3.264584064E0,3.838763293E0
5.067794602E0,-8.160352707E-1,-1.966176391E0,-3.755614996E0,4.316990521E0
5.072536373E0,-8.876266479E-1,-2.004339457E0,-4.177937031E0,4.718094484E0
5.077278196E0,-1.019783974E0,-2.065254688E0,-4.513196945E0,5.066969799E0
5.082019967E0,-1.026001930E0,-2.105663061E0,-4.773810387E0,5.317495886E0
5.086761790E0,-9.040222168E-1,-2.082110882E0,-4.933312416E0,5.430470816E0
5.091503561E0,-8.666849136E-1,-2.063853741E0,-4.943378925E0,5.426567073E0
5.096245384E0,-9.304618835E-1,-2.043660164E0,-4.824950218E0,5.321884139E0
5.100987154E0,-1.023285866E0,-2.011974812E0,-4.598721981E0,5.122831294E0
5.105728977E0,-1.013367653E0,-1.968577862E0,-4.242089272E0,4.785136799E0
5.110470748E0,-9.986248016E-1,-1.939320445E0,-3.801739454E0,4.383085461E0
5.115212571E0,-1.024324417E0,-1.830548286E0,-3.305568218E0,3.914962169E0
5.119954342E0,-1.106993675E0,-1.701876163E0,-2.626115561E0,3.319382534E0
5.124696165E0,-1.258417130E0,-1.534104824E0,-1.901837587E0,2.748468208E0
5.129437936E0,-1.344511986E0,-1.365208268E0,-1.280508161E0,2.304605659E0
5.134179759E0,-1.360471725E0,-1.173229694E0,-6.681402922E-1,1.916706206E0
5.138921529E0,-1.330257416E0,-1.000803471E0,-1.863696575E-1,1.675089857E0
5.143663352E0,-1.296994209E0,-7.974667549E-1,1.984279156E-1,1.535422040E0
5.148405123E0,-1.215305328E0,-6.111703515E-1,4.072499275E-1,1.419981952E0
5.153146946E0,-1.011259079E0,-5.112379193E-1,2.843599319E-1,1.168276382E0
5.157888717E0,-7.042026520E-1,-5.309152603E-1,-2.655470371E-2,8.823137429E-1
5.162630540E0,-4.210281372E-1,-6.411432028E-1,-3.985136747E-1,8.643740207E-1
5.167372311E0,-1.617355347E-1,-7.722858191E-1,-7.285403013E-1,1.073943546E0
5.172114134E0,5.445003510E-2,-1.000643253E0,-1.067307234E0,1.464034309E0
5.176855904E0,9.582424164E-2,-1.242541075E0,-1.375241399E0,1.855903961E0
5.181597675E0,-4.968070984E-2,-1.479126930E0,-1.744898915E0,2.288002813E0
5.186339498E0,-3.725080490E-1,-1.658411503E0,-2.120266438E0,2.717465865E0
5.191081269E0,-9.060010910E-1,-1.774260283E0,-2.468738317E0,3.172303013E0
5.195823092E0,-1.649744987E0,-1.785007954E0,-2.771044731E0,3.686000654E0
5.200564863E0,-2.364092827E0,-1.727816701E0,-3.107658386E0,4.269874248E0
5.205306686E0,-2.953166008E0,-1.656184554E0,-3.525302410E0,4.887933493E0
5.210048456E0,-3.424030304E0,-1.613656759E0,-3.953305244E0,5.473252599E0
5.214790279E0,-3.719243050E0,-1.555005670E0,-4.211227894E0,5.829687116E0
5.219532050E0,-3.607148170E0,-1.647488713E0,-4.206249237E0,5.780853711E0
5.224273873E0,-3.189156532E0,-1.893122196E0,-3.888836861E0,5.373795974E0
5.229015644E0,-2.430523872E0,-2.274483442E0,-3.412127495E0,4.766899964E0
5.233757467E0,-1.523646355E0,-2.515800953E0,-2.670668840E0,3.972810681E0
5.238499238E0,-7.439737320E-1,-2.578198910E0,-1.676136255E0,3.163864611E0
5.243241061E0,-3.209114075E-1,-2.513975382E0,-6.487619877E-1,2.616094125E0
5.247982831E0,-2.467937469E-1,-2.449894428E0,1.847664118E-1,2.469216169E0
5.252724654E0,-4.709606171E-1,-2.419564724E0,7.127106190E-1,2.565941111E0
5.257466425E0,-8.065404892E-1,-2.361054659E0,8.736795187E-1,2.643558693E0
5.262208196E0,-1.215115547E0,-2.183674335E0,8.841398954E-1,2.650781536E0
5.266950019E0,-1.481281281E0,-1.853906870E0,9.897258282E-1,2.571132460E0
5.271691790E0,-1.671917915E0,-1.553068757E0,1.352932096E0,2.652877181E0
5.276433613E0,-1.836908340E0,-1.244676948E0,1.933484435E0,2.943096161E0
5.281175384E0,-2.057143211E0,-9.808498025E-1,2.449256897E0,3.345558828E0
5.285917206E0,-2.035672188E0,-8.299025893E-1,2.806973696E0,3.565361257E0
5.290658977E0,-1.727178574E0,-7.922651768E-1,3.010663748E0,3.560186250E0
5.295400800E0,-1.308797836E0,-7.585765719E-1,3.336626053E0,3.663531576E0
5.300142571E0,-1.078744888E0,-6.042913795E-1,4.177906036E0,4.357035397E0
5.304884394E0,-1.102337837E0,-2.713386416E-1,5.419447899E0,5.537074037E0
5.309626165E0,-1.318292618E0,9.206193686E-2,6.246814251E0,6.385065318E0
5.314367936E0,-1.453464508E0,4.029827118E-1,6.252037048E0,6.431401200E0
5.319109759E0,-1.551489830E0,6.603902578E-1,5.727617264E0,5.970664578E0
5.323851529E0,-1.663526535E0,1.107479095E0,5.131720543E0,5.507121409E0
5.328593352E0,-1.649636269E0,1.225160837E0,4.072268009E0,4.561324987E0
5.333335123E0,-2.101254463E0,1.019505858E0,2.971913099E0,3.779805548E0
5.338076946E0,-2.840884209E0,6.267189980E-1,2.350491285E0,3.740081426E0
5.342818717E0,-3.404127121E0,2.192742825E-1,2.101794481E0,4.006707215E0
5.347560488E0,-3.889194489E0,-1.761269569E-2,2.019314289E0,4.382211106E0
5.352302311E0,-4.050183296E0,-1.672569513E-1,1.920137286E0,4.485408211E0
5.357044081E0,-4.112513542E0,-2.403601408E-1,2.026289463E0,4.590902920E0
5.361785904E0,-4.373136520E0,-3.867049813E-1,2.085398674E0,4.860324207E0
5.366527675E0,-4.756091118E0,-6.795974374E-1,1.546068668E0,5.047037123E0
5.371269498E0,-5.269462585E0,-1.055850983E0,6.854929924E-1,5.417744723E0
5.376011269E0,-5.696406364E0,-1.347444057E0,-1.066454649E-1,5.854572932E0
5.380753092E0,-6.056556702E0,-1.649993181E0,-7.156384587E-1,6.317950220E0
5.385494863E0,-6.053378105E0,-2.063496113E0,-9.802405834E-1,6.470106204E0
5.390236634E0,-5.684510231E0,-2.395690918E0,-8.111965656E-1,6.221818979E0
5.394978456E0,-4.834988594E0,-2.556866169E0,-3.211532831E-1,5.478851955E0
5.399720227E0,-3.650428772E0,-2.438212395E0,3.756535053E-1,4.405862623E0
5.404462050E0,-2.300079346E0,-2.172273874E0,1.160277843E0,3.369774986E0
5.409203821E0,-1.206669807E0,-1.815319777E0,1.821063280E0,2.840371346E0
5.413945644E0,-4.387989044E-1,-1.233094931E0,2.230708838E0,2.586335149E0
5.418687415E0,2.408103943E-1,-6.622536778E-1,2.327585697E0,2.431917918E0
5.423429186E0,6.887207031E-1,-4.813519120E-2,2.199571133E0,2.305377707E0
5.428171009E0,1.067542076E0,4.819640815E-1,1.845146894E0,2.185521110E0
5.432912779E0,1.463027000E0,8.393026590E-1,1.336424351E0,2.151954229E0
5.437654602E0,1.953624725E0,1.012119532E0,6.306986809E-1,2.288846072E0
5.442396373E0,2.373883247E0,9.504177570E-1,-1.014150381E-1,2.559081983E0
5.447138144E0,2.668755531E0,7.161874771E-1,-6.431111097E-1,2.837035863E0
5.451879967E0,2.927000523E0,2.923242450E-1,-1.027614117E0,3.115890931E0
5.456621738E0,3.172926903E0,-1.349964291E-1,-1.112474561E0,3.365009482E0
5.461363561E0,3.409286976E0,-4.874969721E-1,-1.011315703E0,3.589380230E0
5.466105331E0,3.664998531E0,-7.729835510E-1,-7.784467936E-1,3.825662977E0
5.470847154E0,3.947142601E0,-9.728782773E-1,-4.837260246E-1,4.093948915E0
5.475588925E0,4.281750679E0,-1.022844195E0,-2.431095839E-1,4.408934270E0
5.480330696E0,4.637318134E0,-1.018558502E0,-9.399890900E-2,4.748791077E0
5.485072519E0,5.042216778E0,-9.810895920E-1,-3.522539139E-2,5.136898641E0
5.489814290E0,5.455515385E0,-9.098976254E-1,1.116623878E-1,5.532000569E0
5.494556113E0,5.767022133E0,-7.830919623E-1,2.715578079E-1,5.826278482E0
5.499297884E0,5.955279827E0,-6.866379976E-1,4.059379101E-1,6.008461962E0
5.504039654E0,6.128069878E0,-5.748102069E-1,4.432718754E-1,6.170910561E0
5.508781477E0,6.431192398E0,-4.733712077E-1,5.005414486E-1,6.467987145E0
5.513523248E0,6.744856834E0,-4.223003983E-1,4.961502552E-1,6.776252387E0
5.518265071E0,7.045283318E0,-4.042415619E-1,2.706663609E-1,7.062059795E0
5.523006842E0,7.303997040E0,-4.662413001E-1,-1.053862572E-1,7.319621573E0
5.527748613E0,7.394534111E0,-5.577853322E-1,-3.798249960E-1,7.425262704E0
5.532490436E0,7.312440395E0,-6.313072443E-1,-4.876806736E-1,7.355825298E0
5.537232206E0,7.117754936E0,-6.394140720E-1,-5.771789551E-1,7.169687666E0
5.541974029E0,6.891982079E0,-5.731235147E-1,-4.591261148E-1,6.930994469E0
5.546715800E0,6.819453239E0,-4.732642770E-1,-1.306507587E-1,6.837104005E0
5.551457571E0,6.859594345E0,-3.657986224E-1,3.707439899E-1,6.879338218E0
5.556199394E0,6.728068829E0,-2.553727031E-1,9.122228622E-1,6.794429772E0
5.560941165E0,6.389508247E0,-2.962967753E-2,1.332143068E0,6.526967038E0
5.565682988E0,6.028395653E0,2.373933941E-1,1.425325632E0,6.199150178E0
5.570424759E0,5.625583172E0,4.954406619E-1,1.325836182E0,5.800904158E0
5.575166529E0,5.078277588E0,7.106504440E-1,1.208329201E0,5.268205270E0
5.579908352E0,4.427346706E0,8.776640296E-1,9.342701435E-1,4.609181458E0
5.584650123E0,3.589256763E0,9.477898479E-1,4.106936455E-1,3.734934937E0
5.589391894E0,2.700587273E0,9.106611013E-1,-2.088847160E-1,2.857640300E0
5.594133717E0,1.861743450E0,8.348054290E-1,-9.055604935E-1,2.232269828E0
5.598875488E0,1.146540642E0,7.388484478E-1,-1.670581579E0,2.156686181E0
5.603617311E0,5.235385895E-1,6.487603188E-1,-2.416160345E0,2.555936897E0
5.608359081E0,1.390838623E-2,5.690390468E-1,-3.100154400E0,3.151976552E0
5.613100852E0,-4.353132248E-1,5.354864001E-1,-3.744975567E0,3.808029055E0
5.617842675E0,-8.219881058E-1,5.193892121E-1,-4.291570187E0,4.400341381E0
5.622584446E0,-1.120078087E0,4.922181964E-1,-4.822058678E0,4.974847090E0
5.627326217E0,-1.394426346E0,4.685014188E-1,-5.229507446E0,5.432464132E0
5.632068040E0,-1.697817802E0,5.321897268E-1,-5.495508194E0,5.776367501E0
5.636809811E0,-2.034947395E0,6.306977272E-1,-5.553096771E0,5.947745310E0
5.641551581E0,-2.326659203E0,7.594867349E-1,-5.356344223E0,5.889022549E0
5.646293404E0,-2.598972321E0,9.497816563E-1,-4.861286163E0,5.593643310E0
5.651035175E0,-2.827713013E0,1.110812306E0,-4.294403076E0,5.260395674E0
5.655776998E0,-2.974464417E0,1.252330065E0,-3.666960716E0,4.884912492E0
5.660518769E0,-3.051156044E0,1.383903623E0,-2.964216948E0,4.473401899E0
5.665260540E0,-3.062556267E0,1.453155279E0,-2.279151917E0,4.084782076E0
5.670002363E0,-2.994349480E0,1.453225255E0,-1.661752701E0,3.720136353E0
5.674744134E0,-2.899147034E0,1.358213067E0,-1.135471582E0,3.396923899E0
5.679485904E0,-2.862948418E0,1.182505965E0,-7.069379091E-1,3.177192976E0
5.684227727E0,-2.923875809E0,9.689444900E-1,-3.279654980E-1,3.097654683E0
5.688969498E0,-3.019690514E0,7.529192567E-1,-5.368471146E-2,3.112603453E0
5.693711269E0,-3.179276466E0,6.462303996E-1,-5.221104622E-2,3.244709320E0
5.698453092E0,-3.369379997E0,6.551393270E-1,-3.984930515E-1,3.455535532E0
5.703194863E0,-3.599825859E0,8.026974201E-1,-1.026330352E0,3.828370849E0
5.707936634E0,-3.928098679E0,1.037814379E0,-1.687330008E0,4.399329548E0
5.712678456E0,-4.315916061E0,1.352380514E0,-2.422570705E0,5.130780967E0
5.717420227E0,-4.748852730E0,1.683494091E0,-3.035933018E0,5.882401201E0
5.722161998E0,-5.298477173E0,2.001824141E0,-3.584570408E0,6.703007180E0
5.726903821E0,-5.868768692E0,2.285642624E0,-4.151271343E0,7.543186457E0
5.731645592E0,-6.261143684E0,2.468161106E0,-4.694830894E0,8.205801400E0
5.736387415E0,-6.368309021E0,2.564564466E0,-5.064730644E0,8.531344981E0
5.741129186E0,-5.949446678E0,2.607533932E0,-5.099648476E0,8.258423794E0
5.745870956E0,-4.845711708E0,2.594833374E0,-4.592249870E0,7.162600161E0
5.750612727E0,-2.965398788E0,2.503568888E0,-3.321295500E0,5.108077030E0
5.755354550E0,-8.788366318E-1,2.422932386E0,-1.520985126E0,2.992716313E0
5.760096321E0,6.222515106E-1,2.186966896E0,6.404039860E-1,2.362231659E0
5.764838092E0,1.407206535E0,1.850497007E0,2.897404194E0,3.714770581E0
5.769579915E0,1.874021530E0,1.486960769E0,5.071349144E0,5.607280193E0
5.774321686E0,2.047117233E0,1.095723033E0,6.911907673E0,7.291485830E0
5.779063456E0,1.996263981E0,7.740874887E-1,8.510859489E0,8.776047548E0
5.783805279E0,1.635643482E0,5.353208780E-1,9.849604607E0,9.998830379E0
5.788547050E0,1.061202049E0,4.190006554E-1,1.084476662E1,1.090461711E1
5.793288821E0,3.781385422E-1,3.068885505E-1,1.135979080E1,1.137022499E1
5.798030644E0,-5.140724182E-1,2.383214086E-1,1.161240482E1,1.162622094E1
5.802772415E0,-1.741873741E0,2.976973653E-1,1.134995651E1,1.148669929E1
5.807514186E0,-3.139528275E0,4.280716181E-1,1.076822853E1,1.122473291E1
5.812256009E0,-4.369093895E0,6.781709194E-1,1.019255066E1,1.111021990E1
5.816997779E0,-4.781889915E0,9.835147262E-1,9.482440948E0,1.066538601E1
5.821739550E0,-4.061718941E0,1.205470800E0,8.401508331E0,9.409360384E0
5.826481373E0,-2.863004684E0,1.316490769E0,6.963688850E0,7.643487828E0
5.831223144E0,-2.114456177E0,1.392887354E0,5.533660412E0,6.085429948E0
5.835964915E0,-2.156579971E0,1.317770720E0,4.137377739E0,4.848221467E0
5.840706686E0,-2.623182297E0,1.138714314E0,2.722511530E0,3.948395203E0
5.845448509E0,-3.221222878E0,9.943889976E-1,1.267710924E0,3.601690893E0
5.850190279E0,-3.548153877E0,8.469119072E-1,1.196727753E-1,3.649791403E0
5.854932050E0,-3.433286667E0,6.327120662E-1,-4.333593845E-1,3.517894577E0
5.859673821E0,-3.198033333E0,3.929807842E-1,-2.712230682E-1,3.233483114E0
5.864415644E0,-3.244474411E0,1.416613609E-1,3.513536453E-1,3.266516727E0
5.869157415E0,-3.464727402E0,-8.645790815E-2,1.137342930E0,3.647651282E0
5.873899186E0,-3.949779510E0,-3.409605324E-1,1.946869373E0,4.416708347E0
5.878641009E0,-4.429645538E0,-5.614436865E-1,2.749359369E0,5.243658603E0
5.883382779E0,-4.665790558E0,-8.593133688E-1,3.363336086E0,5.815500892E0
5.888124550E0,-4.637483597E0,-1.144134521E0,3.727262020E0,6.058694586E0
5.892866373E0,-4.397839546E0,-1.401706100E0,3.766366243E0,5.957456449E0
5.897608144E0,-4.202873230E0,-1.653903484E0,3.576689243E0,5.761271220E0
5.902349915E0,-4.047527313E0,-1.874936342E0,3.209138632E0,5.495128242E0
5.907091686E0,-3.682793617E0,-1.938534975E0,2.741191626E0,4.983474511E0
5.911833509E0,-3.044054031E0,-1.885336280E0,2.166845322E0,4.185209252E0
5.916575279E0,-2.167308807E0,-1.705208182E0,1.613818884E0,3.195211073E0
5.921317050E0,-1.220140457E0,-1.443099976E0,1.190125227E0,2.233311069E0
5.926058821E0,-2.671346664E-1,-1.122369766E0,8.792459965E-1,1.450568283E0
5.930800644E0,5.077886581E-1,-8.119783401E-1,6.509170532E-1,1.157951275E0
5.935542415E0,1.095487595E0,-4.449506998E-1,5.872037411E-1,1.320182726E0
5.940284186E0,1.615859032E0,-1.265476346E-1,6.645262241E-1,1.751744792E0
5.945025956E0,2.174373150E0,1.436248422E-1,7.282938957E-1,2.297594109E0
5.949767779E0,2.744769096E0,3.781185746E-1,8.510441780E-1,2.898449110E0
5.954509550E0,3.066193581E0,5.650905371E-1,1.029674768E0,3.283458621E0
5.959251321E0,3.502143383E0,6.859210730E-1,1.024207115E0,3.712747798E0
5.963993144E0,3.970881939E0,7.436806560E-1,8.267621994E-1,4.123651298E0
5.968734915E0,4.438575745E0,8.489220142E-1,6.109812260E-1,4.560144875E0
5.973476686E0,4.785427570E0,9.559201002E-1,3.804376125E-1,4.894776098E0
5.978218456E0,5.040076733E0,1.013988256E0,1.649309397E-1,5.143709544E0
5.982960227E0,5.240749359E0,1.101613641E0,-7.019221783E-2,5.355738362E0
5.987702050E0,5.471151352E0,1.168010712E0,-3.065884113E-1,5.602833443E0
5.992443821E0,5.776717186E0,1.227186918E0,-5.110777617E-1,5.927701887E0
5.997185592E0,6.143125534E0,1.257330418E0,-6.045949459E-1,6.299556028E0
6.001927363E0,6.517799377E0,1.303678632E0,-6.229912043E-1,6.676032110E0
6.006669186E0,6.888899803E0,1.318207741E0,-4.512103796E-1,7.028385515E0
6.011410956E0,7.270938396E0,1.308068991E0,-1.677035093E-1,7.389567925E0
6.016152727E0,7.616231918E0,1.273253083E0,1.611794233E-1,7.723609315E0
6.020894498E0,7.917877197E0,1.213705897E0,6.441819668E-1,8.036219990E0
6.025636269E0,8.097239494E0,1.098191977E0,1.217712760E0,8.261606225E0
6.030378092E0,8.214385986E0,9.792244434E-1,1.746050000E0,8.454803856E0
6.035119863E0,8.329165459E0,8.782255650E-1,2.188454866E0,8.656535802E0
6.039861634E0,8.403279305E0,7.208923697E-1,2.513479710E0,8.800702763E0
6.044603404E0,8.324323654E0,5.667853951E-1,2.581754208E0,8.733903181E0
6.049345227E0,8.104306221E0,4.035145044E-1,2.368185043E0,8.452863638E0
6.054086998E0,7.709802628E0,1.803493500E-1,1.943276286E0,7.952980898E0
6.058828769E0,7.246115685E0,4.571914673E-3,1.501858711E0,7.400121148E0
6.063570540E0,6.789692879E0,-1.598116159E-1,1.092757940E0,6.878923539E0
6.068312311E0,6.302215576E0,-2.484260798E-1,8.730311394E-1,6.367245877E0
6.073054134E0,5.881678104E0,-3.113058805E-1,6.125519276E-1,5.921677848E0
6.077795904E0,5.468104839E0,-3.839033842E-1,2.967774868E-1,5.489592810E0
6.082537675E0,4.992103100E0,-4.587391615E-1,6.469929218E-2,5.013553727E0
6.087279446E0,4.429833889E0,-5.619050264E-1,-6.890487671E-2,4.465860883E0
6.092021269E0,3.917724133E0,-6.932456493E-1,-1.512866020E-1,3.981461986E0
6.096763040E0,3.391183376E0,-8.212411404E-1,-1.336339712E-1,3.491764560E0
6.101504811E0,2.840782642E0,-9.289768934E-1,-1.079976559E-1,2.990770400E0
6.106246581E0,2.216488838E0,-1.075972795E0,-1.254879236E-1,2.467040220E0
6.110988352E0,1.501854897E0,-1.194976687E0,-2.083693743E-1,1.930532364E0
6.115730123E0,7.117586136E-1,-1.326676488E0,-5.047618151E-1,1.587909102E0
6.120471946E0,-2.509632111E-1,-1.413632274E0,-9.169340134E-1,1.703557080E0
6.125213717E0,-1.344210625E0,-1.546709776E0,-1.426454067E0,2.496794853E0
6.129955488E0,-2.802925110E0,-1.740359306E0,-2.436413288E0,4.101383839E0
6.134697259E0,-4.445994377E0,-2.042575359E0,-3.810180664E0,6.201327019E0
6.139439081E0,-5.692562103E0,-2.223361731E0,-5.380798340E0,8.142578919E0
6.144180852E0,-6.255734444E0,-2.284616232E0,-6.840753555E0,9.547229648E0
6.148922623E0,-6.119612694E0,-2.213749409E0,-7.922085285E0,1.025230614E1
6.153664394E0,-5.339640617E0,-2.045992613E0,-8.593481064E0,1.032210078E1
6.158406165E0,-4.104144096E0,-1.845438361E0,-8.779093742E0,9.865197841E0
6.163147936E0,-2.923027039E0,-1.650544763E0,-8.381259918E0,9.028505020E0
6.167889759E0,-2.147203445E0,-1.591281652E0,-7.478286266E0,7.941500199E0
6.172631529E0,-1.663223267E0,-1.670675397E0,-6.494025707E0,6.908678441E0
6.177373300E0,-1.424836159E0,-1.772017837E0,-5.490818977E0,5.943004151E0
6.182115071E0,-1.331077576E0,-1.821368814E0,-4.570187569E0,5.096642648E0
6.186856842E0,-1.276450157E0,-1.768516541E0,-3.680950403E0,4.278594586E0
6.191598613E0,-1.272686958E0,-1.687796712E0,-2.857605696E0,3.554476072E0
6.196340436E0,-1.352998734E0,-1.560193539E0,-2.241961956E0,3.048147448E0
6.201082206E0,-1.411868095E0,-1.409703493E0,-1.789077759E0,2.679819898E0
6.205823977E0,-1.360643387E0,-1.255118132E0,-1.336632252E0,2.283255949E0
6.210565748E0,-1.189661980E0,-1.098176003E0,-9.468755722E-1,1.875595774E0
6.215307519E0,-9.131593704E-1,-9.616925716E-1,-5.405220389E-1,1.432088235E0
6.220049290E0,-6.912946701E-1,-8.588476181E-1,-2.326862812E-1,1.126787672E0
6.224791113E0,-7.200012207E-1,-8.629138470E-1,-2.457594872E-2,1.124111223E0
6.229532884E0,-1.003899574E0,-9.447958469E-1,-1.010118723E-1,1.382265150E0
6.234274654E0,-1.430603981E0,-1.008756876E0,-5.857200623E-1,1.845883576E0
6.239016425E0,-1.883057594E0,-9.951148033E-1,-1.274520040E0,2.482047684E0
6.243758196E0,-2.270553589E0,-9.971091747E-1,-2.058298588E0,3.222767969E0
6.248499967E0,-2.566946983E0,-1.014421821E0,-2.788783073E0,3.923720107E0
6.253241738E0,-2.700615883E0,-1.170971155E0,-3.345819473E0,4.456344639E0
6.257983561E0,-2.683780670E0,-1.468927503E0,-3.657955647E0,4.768759399E0
6.262725331E0,-2.456990242E0,-1.851009488E0,-3.652389050E0,4.775246899E0
6.267467102E0,-2.008812904E0,-2.291358948E0,-3.458708048E0,4.609589621E0
6.272208873E0,-1.373247147E0,-2.701950073E0,-2.912443876E0,4.203411859E0
6.276950644E0,-8.614358902E-1,-2.952140331E0,-1.936782837E0,3.634326910E0
6.281692415E0,-4.109907150E-1,-2.952072620E0,-6.404819489E-1,3.048583811E0
6.286434186E0,-6.717491150E-2,-2.671466827E0,5.600130558E-1,2.730359336E0
6.291176009E0,1.893424988E-1,-2.319294453E0,1.556912065E0,2.799812943E0
6.295917779E0,2.773580551E-1,-1.877339959E0,2.035892487E0,2.783197986E0
6.300659550E0,1.206941605E-1,-1.423871994E0,2.154228210E0,2.585087565E0
6.305401321E0,-3.445644379E-1,-8.822610378E-1,2.103668928E0,2.307061367E0
6.310143092E0,-7.924747467E-1,-2.806869745E-1,2.071851730E0,2.235927323E0
6.314884863E0,-9.788484573E-1,2.676005363E-1,2.125193119E0,2.355037185E0
6.319626634E0,-9.683408737E-1,8.061358929E-1,2.450516224E0,2.755461647E0
6.324368404E0,-5.795583725E-1,1.166950107E0,2.614083767E0,2.920803725E0
6.329110227E0,-1.863260269E-1,1.302396894E0,2.693001270E0,2.997200510E0
6.333851998E0,2.207946777E-2,1.265270233E0,2.823678970E0,3.094278461E0
6.338593769E0,1.202487946E-2,1.096025229E0,2.931464672E0,3.129680658E0
6.343335540E0,-4.650697708E-1,8.769938946E-1,3.250552654E0,3.398749879E0
6.348077311E0,-1.023643494E0,6.181729436E-1,3.867374420E0,4.048032695E0
6.352819081E0,-1.802191734E0,4.031842947E-1,4.492802143E0,4.857542971E0
6.357560852E0,-2.749954224E0,1.905523539E-1,5.237859726E0,5.918930050E0
6.362302623E0,-3.882880211E0,-1.335842609E-1,6.192954063E0,7.310764907E0
6.367044394E0,-5.159242630E0,-4.973617792E-1,7.126046181E0,8.811679035E0
6.371786217E0,-6.393835068E0,-9.533628225E-1,7.989599228E0,1.027734029E1
6.376527988E0,-7.337288857E0,-1.371615410E0,8.546878815E0,1.134752282E1
6.381269759E0,-7.867709160E0,-1.721594214E0,8.705987930E0,1.185997301E1
6.386011529E0,-8.086123466E0,-1.928989172E0,8.610531807E0,1.196861103E1
6.390753300E0,-8.211070061E0,-1.990987897E0,8.148380280E0,1.173804948E1
6.395495071E0,-8.191228867E0,-1.971043348E0,6.910586834E0,1.089667163E1
6.400236842E0,-8.119200706E0,-2.006489515E0,4.574874401E0,9.532937432E0
6.404978613E0,-8.259187698E0,-2.111458302E0,2.063870907E0,8.771088913E0
6.409720384E0,-8.343541145E0,-2.214536190E0,-9.414732456E-2,8.632943478E0
6.414462154E0,-8.027898788E0,-2.392422915E0,-1.470762372E0,8.504939054E0
6.419203977E0,-7.276607513E0,-2.508837223E0,-2.143710375E0,7.989917101E0
6.423945748E0,-6.202221870E0,-2.530117035E0,-2.096527815E0,7.018865807E0
6.428687519E0,-5.158517838E0,-2.487267971E0,-1.646869540E0,5.958941812E0
6.433429290E0,-4.288364410E0,-2.294115067E0,-1.047474623E0,4.974960939E0
6.438171061E0,-3.497951508E0,-1.933716297E0,-5.329688787E-1,4.032242465E0
6.442912831E0,-2.870732307E0,-1.585234165E0,-1.763526201E-1,3.284078499E0
6.447654602E0,-2.329970360E0,-1.162207007E0,-3.454184532E-2,2.603973914E0
6.452396373E0,-1.823151588E0,-7.957146168E-1,-5.177736282E-3,1.989238617E0
6.457138144E0,-1.173683167E0,-5.088583231E-1,7.765913010E-2,1.281600526E0
6.461879915E0,-5.637664795E-1,-2.603849769E-1,2.294423580E-1,6.620247542E-1
6.466621686E0,8.542919159E-2,-5.456167459E-2,3.970837593E-1,4.098178071E-1
6.471363509E0,6.066379547E-1,1.183402538E-1,6.196138859E-1,8.751773485E-1
6.476105279E0,1.098395348E0,3.158133626E-1,7.454757690E-1,1.364530887E0
6.480847050E0,1.616161346E0,4.926572442E-1,7.958102226E-1,1.867619492E0
6.485588821E0,2.248753071E0,5.965509415E-1,7.627189159E-1,2.448367526E0
6.490330592E0,2.831340790E0,6.590501666E-1,6.666340828E-1,2.982488691E0
6.495072363E0,3.488401413E0,6.710466743E-1,4.289078712E-1,3.578157350E0
6.499814134E0,4.093021870E0,6.569157243E-1,2.476518154E-1,4.152793965E0
6.504555904E0,4.623367786E0,6.167578697E-1,8.986592293E-2,4.665189797E0
6.509297675E0,5.019293785E0,5.359483957E-1,-1.299381256E-3,5.047826510E0
6.514039446E0,5.369003773E0,4.643426836E-1,-8.305287361E-2,5.389685837E0
6.518781217E0,5.638830185E0,3.824831843E-1,-8.971333504E-2,5.652499246E0
6.523522988E0,5.991268158E0,2.998257577E-1,-8.212327957E-2,5.999327784E0
6.528264759E0,6.320756912E0,2.210355699E-1,-2.799487114E-2,6.324682473E0
6.533006529E0,6.536195755E0,1.910926700E-1,1.765613556E-1,6.541371819E0
6.537748352E0,6.924240112E0,1.356679797E-1,3.167607784E-1,6.932809266E0
6.542490071E0,7.192807198E0,9.277474880E-2,4.973571301E-1,7.210578801E0
6.547231894E0,7.344740868E0,8.800253272E-2,6.862795353E-1,7.377258465E0
6.551973665E0,7.633973598E0,6.636407971E-2,6.675581932E-1,7.663392919E0
6.556715436E0,8.022441864E0,8.900508285E-3,6.201045513E-1,8.046376969E0
6.561457206E0,8.371748924E0,-3.635732830E-2,3.879315853E-1,8.380810988E0
6.566198977E0,8.593883514E0,-5.983575433E-2,1.522393227E-1,8.595440128E0
6.570940748E0,8.823223114E0,-5.429268628E-2,-3.079605103E-2,8.823443897E0
6.575682519E0,8.950015068E0,-1.491661742E-2,-1.914896965E-1,8.952075766E0
6.580424290E0,9.050983429E0,8.470562100E-2,-3.751344681E-1,9.059150178E0
6.585166061E0,9.152409554E0,1.827381253E-1,-6.370248795E-1,9.176371535E0
6.589907831E0,9.220672607E0,2.941490114E-1,-9.992394447E-1,9.279321443E0
6.594649602E0,9.305806160E0,4.844087064E-1,-1.340634465E0,9.414349731E0
6.599391373E0,9.295254707E0,6.825227141E-1,-1.602135420E0,9.456978124E0
6.604133144E0,9.079030991E0,9.057649374E-1,-1.748484254E0,9.290124382E0
6.608874915E0,8.606919289E0,1.125525951E0,-1.826252341E0,8.870234829E0
6.613616686E0,7.945942879E0,1.389434099E0,-1.807711244E0,8.266580629E0
6.618358456E0,7.172642231E0,1.608640552E0,-1.705648661E0,7.546108822E0
6.623100227E0,6.361217976E0,1.842903852E0,-1.658996344E0,6.827419543E0
6.627841998E0,5.504699707E0,2.044296026E0,-1.655120015E0,6.100843169E0
6.632583769E0,4.536583900E0,2.260689020E0,-1.694973350E0,5.344552646E0
6.637325540E0,3.457692623E0,2.427428961E0,-1.809689283E0,4.595979214E0
6.642067363E0,2.230672836E0,2.551514626E0,-1.898676991E0,3.884726825E0
6.646809134E0,9.231023788E-1,2.606212854E0,-2.089734077E0,3.465754169E0
6.651550904E0,-3.095493317E-1,2.646204233E0,-2.225175858E0,3.471257010E0
6.656292675E0,-1.341066360E0,2.670922279E0,-2.342338085E0,3.797213783E0
6.661034446E0,-2.117313385E0,2.658408642E0,-2.421684027E0,4.173093098E0
6.665776217E0,-2.627309799E0,2.586751699E0,-2.455785513E0,4.430002666E0
6.670517988E0,-2.926952362E0,2.489268541E0,-2.453668594E0,4.558946981E0
6.675259759E0,-3.057491302E0,2.313376427E0,-2.447505951E0,4.548653530E0
6.680001529E0,-3.162694931E0,2.097295284E0,-2.399281025E0,4.489747896E0
6.684743300E0,-3.359549522E0,1.824142814E0,-2.325051308E0,4.474364042E0
6.689485071E0,-3.728711128E0,1.514783502E0,-2.170573235E0,4.572662671E0
6.694226842E0,-4.223822594E0,1.158762455E0,-1.921816111E0,4.782968209E0
6.698968613E0,-4.674241066E0,7.651304007E-1,-1.741765380E0,5.046553350E0
6.703710384E0,-5.184668541E0,2.710440159E-1,-1.518738031E0,5.409326940E0
6.708452154E0,-5.687729836E0,-2.332542241E-1,-1.285331726E0,5.835816640E0
6.713193925E0,-6.169260025E0,-6.744772792E-1,-1.111528516E0,6.304774738E0
6.717935696E0,-6.560604095E0,-9.459269643E-1,-1.075857282E0,6.715189708E0
6.722677467E0,-6.743077278E0,-1.022054553E0,-1.056145072E0,6.901386028E0
6.727419238E0,-6.959073067E0,-9.110565186E-1,-1.157126188E0,7.113203423E0
6.732161009E0,-7.036611557E0,-5.375640392E-1,-1.305171251E0,7.176792410E0
6.736902779E0,-7.174262047E0,4.419636726E-2,-1.511851788E0,7.331963248E0
6.741644550E0,-7.132811546E0,7.283537984E-1,-1.843719840E0,7.403161666E0
6.746386321E0,-6.871617317E0,1.441447854E0,-2.156128645E0,7.344779588E0
6.751128092E0,-6.359784126E0,1.972455740E0,-2.352813244E0,7.062093595E0
6.755869863E0,-5.989584923E0,2.395329237E0,-2.433082342E0,6.894390429E0
6.760611634E0,-5.726844788E0,2.628931522E0,-2.567487240E0,6.804412017E0
6.765353404E0,-5.240777969E0,2.664312601E0,-2.703722000E0,6.471045357E0
6.770095175E0,-4.498072624E0,2.666972637E0,-2.569091558E0,5.826287996E0
6.774836946E0,-3.561433792E0,2.670236588E0,-2.157804966E0,4.946725822E0
6.779578717E0,-2.665829659E0,2.661063194E0,-1.498163223E0,4.053689447E0
6.784320488E0,-1.785804749E0,2.692643881E0,-5.506525040E-1,3.277597878E0
6.789062259E0,-8.602237701E-1,2.758023977E0,5.228216648E-1,2.935987685E0
6.793804029E0,1.202869415E-2,2.739737988E0,1.604511976E0,3.175022458E0
6.798545800E0,5.126247406E-1,2.670508862E0,2.752906322E0,3.869482514E0
6.803287571E0,7.519464493E-1,2.527856350E0,3.833884954E0,4.653402522E0
6.808029342E0,7.686433792E-1,2.313490868E0,4.649483681E0,5.249833439E0
6.812771113E0,5.346355438E-1,2.050750732E0,5.194210052E0,5.609922620E0
6.817512884E0,1.018619537E-2,1.791531563E0,5.671442509E0,5.947684359E0
6.822254654E0,-4.927244186E-1,1.482722759E0,6.074326038E0,6.272055560E0
6.826996425E0,-9.539928436E-1,1.174438477E0,6.298462868E0,6.477657183E0
6.831738196E0,-1.382218361E0,7.972756028E-1,6.375791073E0,6.572433932E0
6.836479967E0,-1.755192757E0,4.274374843E-1,6.485515594E0,6.732407960E0
6.841221738E0,-2.008193016E0,5.946397781E-2,6.699973106E0,6.994713345E0
6.845963509E0,-1.959822655E0,-2.259221971E-1,6.891768456E0,7.168571554E0
6.850705279E0,-1.574819565E0,-4.911800325E-1,6.938283920E0,7.131696730E0
6.855447050E0,-9.016313553E-1,-7.025184631E-1,6.824689865E0,6.919744435E0
6.860188821E0,-1.655454636E-1,-9.312875867E-1,6.519568443E0,6.587827757E0
6.864930592E0,5.136470795E-1,-1.097972512E0,6.001138687E0,6.122339626E0
6.869672363E0,1.092926025E0,-1.173335433E0,5.434492588E0,5.666119750E0
6.874414134E0,1.546195507E0,-1.140199542E0,5.157114029E0,5.503326326E0
6.879155904E0,1.605665207E0,-1.118024349E0,4.766613960E0,5.152547705E0
6.883897675E0,1.316960335E0,-1.068487644E0,4.360464096E0,4.678642699E0
6.888639446E0,8.259010315E-1,-1.005902290E0,4.114394188E0,4.315343725E0
6.893381217E0,3.762960434E-1,-1.035193443E0,3.936475754E0,4.087672386E0
6.898122988E0,-1.948785782E-1,-1.127625704E0,4.009777069E0,4.169871645E0
6.902864706E0,-8.279380798E-1,-1.324074745E0,4.201899529E0,4.482701757E0
6.907606529E0,-1.530133247E0,-1.603693724E0,4.455006599E0,4.975964742E0
6.912348248E0,-2.289555550E0,-1.958081245E0,4.763964653E0,5.636621860E0
6.917090019E0,-2.933905602E0,-2.410025835E0,4.983103752E0,6.264770515E0
6.921831790E0,-3.432062149E0,-2.824460983E0,5.285218239E0,6.905806417E0
6.926573561E0,-3.783959389E0,-3.233528376E0,5.371998787E0,7.323416237E0
6.931315331E0,-3.980073929E0,-3.527755737E0,5.184262276E0,7.427154527E0
6.936057102E0,-4.192687035E0,-3.604821205E0,4.775049210E0,7.305782329E0
6.940798873E0,-4.106152534E0,-3.517446280E0,4.134961128E0,6.806674702E0
6.945540644E0,-3.615476608E0,-3.310190916E0,3.166764259E0,5.835874474E0
6.950282415E0,-2.964631081E0,-2.963016748E0,2.037331820E0,4.660389108E0
6.955024186E0,-2.354319572E0,-2.542254448E0,1.001636028E0,3.606820353E0
6.959765956E0,-1.777194977E0,-2.069094181E0,1.892993450E-1,2.734119046E0
6.964507727E0,-1.190200806E0,-1.605476260E0,-4.547829628E-1,2.049624239E0
6.969249498E0,-5.048742294E-1,-1.112849593E0,-8.348603249E-1,1.479974313E0
6.973991269E0,1.734037399E-1,-7.248095274E-1,-9.773483276E-1,1.229075857E0
6.978733040E0,6.031255722E-1,-3.504213095E-1,-1.040062666E0,1.252312221E0
6.983474811E0,1.066570282E0,-4.216831923E-2,-1.159611225E0,1.576086459E0
6.988216581E0,1.486869812E0,2.527107894E-1,-1.460969567E0,2.099780145E0
6.992958352E0,1.773028851E0,5.147988796E-1,-1.772114992E0,2.559109364E0
6.997700071E0,2.056596756E0,7.388128042E-1,-2.033498526E0,2.985054577E0
7.002441842E0,2.337389946E0,9.386855960E-1,-2.245694160E0,3.374561404E0
7.007183613E0,2.636651516E0,1.101919651E0,-2.338106394E0,3.692275673E0
7.011925384E0,2.973097801E0,1.206344724E0,-2.425112247E0,4.021908445E0
7.016667154E0,3.387014866E0,1.294704556E0,-2.453449249E0,4.378075240E0
7.021408925E0,3.846930027E0,1.326096773E0,-2.317476749E0,4.682745110E0
7.026150696E0,4.326154232E0,1.317257404E0,-2.098628283E0,4.985480737E0
7.030892467E0,4.757534027E0,1.220179558E0,-1.834810019E0,5.243042626E0
7.035634238E0,5.136318684E0,1.139763355E0,-1.503600121E0,5.471895782E0
7.040376009E0,5.453144550E0,1.058856726E0,-1.210817099E0,5.685423564E0
7.045117779E0,5.674847603E0,9.817393422E-1,-9.132946134E-1,5.831107485E0
7.049859550E0,5.878334999E0,9.367699623E-1,-6.773709059E-1,5.990925777E0
7.054601321E0,6.176235676E0,9.001045227E-1,-5.117211342E-1,6.262422358E0
7.059343092E0,6.599690914E0,8.506408334E-1,-3.889989853E-1,6.665645520E0
7.064084863E0,7.036310196E0,7.794192433E-1,-3.176394701E-1,7.086469527E0
7.068826581E0,7.366638184E0,7.157305479E-1,-2.678929567E-1,7.406172762E0
7.073568352E0,7.643506050E0,6.529357433E-1,-2.579506636E-1,7.675679017E0
7.078310123E0,7.917246819E0,5.606412292E-1,-1.602090597E-1,7.938688980E0
7.083051894E0,8.195044518E0,4.777806997E-1,-4.119873047E-2,8.209063672E0
7.087793665E0,8.390826225E0,3.308421373E-1,1.067911386E-1,8.398025102E0
7.092535436E0,8.428268433E0,1.704127789E-1,2.606074810E-1,8.434018351E0
7.097277206E0,8.221614838E0,-2.980899811E-2,4.616788626E-1,8.234621211E0
7.102018977E0,7.850221634E0,-2.916655540E-1,7.201374769E-1,7.888576962E0
7.106760748E0,7.355048656E0,-5.438709259E-1,9.285638332E-1,7.433355038E0
7.111502519E0,6.855862617E0,-8.563858271E-1,1.070158839E0,6.991529794E0
7.116244290E0,6.290509701E0,-1.210547805E0,1.216380477E0,6.520392607E0
7.120986061E0,5.663821220E0,-1.558946252E0,1.299711227E0,6.016513401E0
7.125727779E0,5.102506161E0,-1.897043109E0,1.326666355E0,5.603069275E0
7.130469550E0,4.491658211E0,-2.220356464E0,1.339857340E0,5.186539694E0
7.135211321E0,3.924575806E0,-2.557692528E0,1.384598613E0,4.884792692E0
7.139953092E0,3.370130539E0,-2.868282557E0,1.288881302E0,4.609342652E0
7.144694863E0,2.749454975E0,-3.078064919E0,1.132130265E0,4.279685180E0
7.149436634E0,2.069888115E0,-3.285341263E0,9.339785576E-1,3.993772648E0
7.154178404E0,1.365141869E0,-3.432787418E0,6.403890848E-1,3.749365274E0
7.158920175E0,5.327024460E-1,-3.451142311E0,6.887555122E-2,3.492692226E0
7.163661946E0,-4.147891998E-1,-3.374217749E0,-7.320680618E-1,3.477544988E0
7.168403717E0,-1.631747246E0,-3.269451141E0,-1.700373411E0,4.030282816E0
7.173145436E0,-3.026162148E0,-3.070301056E0,-2.814856529E0,5.148574871E0
7.177887206E0,-4.219979286E0,-2.760103226E0,-4.053148746E0,6.469498416E0
7.182628977E0,-4.920233727E0,-2.424364567E0,-5.433149815E0,7.720450789E0
7.187370748E0,-5.121652603E0,-1.963901877E0,-6.656829834E0,8.625637334E0
7.192112519E0,-4.837996483E0,-1.434673309E0,-7.610451221E0,9.131454718E0
7.196854290E0,-4.369527817E0,-8.924584985E-1,-8.271790504E0,9.397434419E0
7.201596061E0,-3.805289268E0,-3.595869541E-1,-8.573512077E0,9.386939785E0
7.206337831E0,-3.348668098E0,1.293270588E-1,-8.398930550E0,9.042805864E0
7.211079550E0,-3.097347260E0,4.889039695E-1,-7.876488686E0,8.477715562E0
7.215821321E0,-3.179787636E0,6.476515532E-1,-6.944560528E0,7.665339058E0
7.220563092E0,-3.446866035E0,6.483451128E-1,-5.653826714E0,6.653344524E0
7.225304863E0,-3.723507881E0,5.503287315E-1,-4.230421066E0,5.662493713E0
7.230046634E0,-3.825455666E0,4.369952679E-1,-2.987174273E0,4.873221321E0
7.234788404E0,-3.731269836E0,2.505941391E-1,-1.951847792E0,4.218398015E0
7.239530175E0,-3.438596725E0,-4.257625341E-2,-1.070284605E0,3.601564842E0
7.244271946E0,-3.055084229E0,-4.450061917E-1,-5.059460998E-1,3.128506291E0
7.249013665E0,-2.728997231E0,-9.160069227E-1,-2.839051485E-1,2.892593421E0
7.253755436E0,-2.462665558E0,-1.384018660E0,-2.721829414E-1,2.838012131E0
7.258497206E0,-2.234584808E0,-1.827544928E0,-4.325155616E-1,2.918965474E0
7.263238977E0,-1.951612473E0,-2.253636360E0,-6.409834027E-1,3.049348752E0
7.267980748E0,-1.714421272E0,-2.621473789E0,-8.695434332E-1,3.250764665E0
7.272722519E0,-1.776427269E0,-2.890774250E0,-1.125215650E0,3.574685981E0
7.277464290E0,-2.153798103E0,-3.120164394E0,-1.387601018E0,4.037289772E0
7.282206009E0,-2.719162941E0,-3.247040272E0,-1.734458923E0,4.576621612E0
7.286947779E0,-3.402886391E0,-3.268881083E0,-2.348209858E0,5.270608016E0
7.291689550E0,-3.882178307E0,-3.244923115E0,-3.317325592E0,6.050246566E0
7.296431321E0,-3.916046143E0,-3.257309914E0,-4.312427521E0,6.674018009E0
7.301173092E0,-3.672745705E0,-3.181819439E0,-5.378475666E0,7.248519604E0
7.305914863E0,-2.987976074E0,-2.941608667E0,-6.130465031E0,7.427224520E0
7.310656634E0,-1.991588593E0,-2.509438038E0,-5.976082325E0,6.780653681E0
7.315398404E0,-9.373912811E-1,-1.991989017E0,-4.935163021E0,5.403938999E0
7.320140123E0,-1.337757111E-1,-1.665724516E0,-3.437019110E0,3.821731867E0
7.324881894E0,3.790769577E-1,-1.420060754E0,-1.750256300E0,2.285534730E0
7.329623665E0,5.729503632E-1,-1.226497054E0,-2.064881623E-1,1.369381066E0
7.334365436E0,5.846223831E-1,-1.128785729E0,9.650828242E-1,1.596034276E0
7.339107206E0,3.880329132E-1,-1.063406229E0,1.711267710E0,2.051789347E0
7.343848925E0,6.709957123E-2,-1.057866216E0,2.028860331E0,2.289073508E0
7.348590696E0,-1.891622543E-1,-1.100887656E0,2.236411095E0,2.499854111E0
7.353332467E0,-4.143724442E-1,-1.180602193E0,2.155559540E0,2.492380988E0
7.358074238E0,-4.890842438E-1,-1.162383676E0,2.022898912E0,2.383790934E0
7.362816009E0,-4.493017197E-1,-1.002471685E0,1.989707947E0,2.272830664E0
7.367557779E0,-6.342744827E-1,-7.199877501E-1,2.553733349E0,2.728047011E0
7.372299550E0,-4.337348938E-1,-3.973357081E-1,2.840369940E0,2.900638381E0
7.377041269E0,2.994384766E-1,-1.860013604E-1,1.637016416E0,1.674539534E0
7.381783040E0,7.554807663E-1,4.225349426E-2,9.263777733E-2,7.623111594E-1
7.386524811E0,6.472930908E-1,2.317796350E-1,-7.888275385E-1,1.046402900E0
7.391266581E0,1.525154114E-1,2.273835540E-1,-6.659896970E-1,7.200739600E-1
7.396008352E0,-4.409837723E-1,-3.112185001E-2,3.220999241E-1,5.469767985E-1
7.400750123E0,-1.165882111E0,-3.366170526E-1,1.996766567E0,2.336593431E0
7.405491842E0,-1.952132225E0,-6.568284035E-1,3.721380234E0,4.253341583E0
7.410233613E0,-2.622351646E0,-1.119410992E0,5.157693386E0,5.893353052E0
7.414975384E0,-3.128572464E0,-1.725237370E0,6.684597492E0,7.579462598E0
7.419717154E0,-3.800503731E0,-2.296866655E0,8.305694580E0,9.418279434E0
7.424458925E0,-4.601366997E0,-2.719782591E0,9.738735199E0,1.110912953E1
7.429200696E0,-4.953981400E0,-2.988386393E0,1.083407116E1,1.228207974E1
7.433942415E0,-4.664654732E0,-3.068911552E0,1.166914558E1,1.293623518E1
7.438684186E0,-3.922871590E0,-2.990794897E0,1.191606712E1,1.289676050E1
7.443425956E0,-3.489643097E0,-2.757654190E0,1.187005997E1,1.267598474E1
7.448167727E0,-3.493974686E0,-2.426959515E0,1.153566742E1,1.229510530E1
7.452909498E0,-3.680229187E0,-2.018595695E0,1.055606556E1,1.135998836E1
7.457651217E0,-3.975346565E0,-1.547936440E0,8.829730988E0,9.806305974E0
7.462392988E0,-4.218173981E0,-1.027556896E0,6.123496056E0,7.506401858E0
7.467134759E0,-4.314266205E0,-5.361390710E-1,3.289371490E0,5.451633039E0
7.471876529E0,-4.460227966E0,7.280460000E-2,9.316039085E-1,4.557062635E0
7.476618300E0,-4.691598892E0,6.560527682E-1,-1.023711920E0,4.846595867E0
7.481360019E0,-4.950333595E0,1.256770730E0,-2.334763288E0,5.615727467E0
7.486101790E0,-4.750595093E0,1.777481914E0,-3.162227869E0,5.977230193E0
7.490843561E0,-4.284063339E0,2.278372765E0,-3.378800392E0,5.912738218E0
7.495585331E0,-3.823651314E0,2.644411564E0,-3.279656887E0,5.689408685E0
7.500327102E0,-3.149505615E0,2.860969782E0,-2.983770132E0,5.196866163E0
7.505068821E0,-2.336102486E0,2.885000706E0,-2.752898693E0,4.621585779E0
7.509810592E0,-1.608266830E0,2.809757948E0,-2.865876913E0,4.323715116E0
7.514552363E0,-9.154195786E-1,2.678219318E0,-3.028392315E0,4.145119025E0
7.519294134E0,1.421098709E-1,2.498697758E0,-3.194511890E0,4.058151293E0
7.524035904E0,1.358435631E0,2.296943903E0,-3.350360155E0,4.283247813E0
7.528777623E0,2.381995678E0,2.004910469E0,-3.217559814E0,4.477305055E0
7.533519394E0,2.873591423E0,1.617834568E0,-2.676356316E0,4.247093063E0
7.538261165E0,3.204528809E0,1.233175993E0,-1.837343216E0,3.894298141E0
7.543002936E0,3.520801544E0,8.646768928E-1,-1.017197847E0,3.765421770E0
7.547744706E0,4.023212433E0,4.953917563E-1,-3.002207279E-1,4.064699713E0
7.552486425E0,4.517777443E0,1.566033065E-1,1.624563932E-1,4.523409079E0
7.557228196E0,5.002024174E0,-1.757314652E-1,3.775119781E-1,5.019326915E0
7.561969967E0,5.437578201E0,-5.138227344E-1,6.502779722E-1,5.500375618E0
7.566711738E0,5.838680744E0,-8.436477184E-1,6.732996702E-1,5.937614567E0
7.571453456E0,6.102434635E0,-1.161061049E0,7.377120256E-1,6.255556751E0
7.576195227E0,6.276734352E0,-1.428493500E0,7.185180187E-1,6.477210507E0
7.580936998E0,6.691506386E0,-1.672028899E0,3.972462416E-1,6.908671575E0
7.585678769E0,7.243528366E0,-1.922140598E0,-1.688659191E-1,7.496121889E0
7.590420488E0,7.686303616E0,-2.161812544E0,-5.873242021E-1,8.006100578E0
7.595162259E0,8.000815392E0,-2.345605373E0,-7.456816435E-1,8.370839421E0
7.599904029E0,8.368851662E0,-2.449614048E0,-8.715870976E-1,8.763444026E0
7.604645800E0,8.682666779E0,-2.547976017E0,-8.957299590E-1,9.093031196E0
7.609387571E0,8.923110008E0,-2.612322092E0,-8.396881223E-1,9.335480442E0
7.614129290E0,9.087849617E0,-2.599858999E0,-7.078476548E-1,9.478888425E0
7.618871061E0,9.220104218E0,-2.561236143E0,-4.489479065E-1,9.579760257E0
7.623612831E0,9.269888878E0,-2.456140995E0,-5.913949013E-2,9.589940869E0
7.628354602E0,9.335544586E0,-2.284960747E0,2.883247137E-1,9.615433920E0
7.633096321E0,9.495982170E0,-2.023793221E0,2.829532623E-1,9.713365993E0
7.637838092E0,9.695943832E0,-1.782436490E0,-4.908204079E-2,9.858540241E0
7.642579863E0,9.755937576E0,-1.443406820E0,-5.019736290E-2,9.862264497E0
7.647321634E0,9.480105400E0,-1.076063871E0,3.895924091E-1,9.548931568E0
7.652063352E0,9.117599487E0,-7.711959481E-1,9.162869453E-1,9.195920039E0
7.656805123E0,8.666161537E0,-4.831471443E-1,1.152207851E0,8.755762096E0
7.661546894E0,8.094881058E0,-1.949980259E-1,1.193710089E0,8.184746016E0
7.666288665E0,7.499649525E0,7.464501262E-2,1.196823120E0,7.594912801E0
7.671030384E0,6.921274185E0,3.292376697E-1,1.169101954E0,7.027035873E0
7.675772154E0,6.302535057E0,6.781106591E-1,1.077512980E0,6.429837979E0
7.680513925E0,5.600621700E0,1.063569546E0,8.410582542E-1,5.762423327E0
7.685255644E0,4.698807240E0,1.492424369E0,5.897865295E-1,4.965276238E0
7.689997415E0,3.318528175E0,1.934595346E0,3.839216232E-1,3.860399489E0
7.694739186E0,1.163009644E0,2.322472095E0,1.706528664E-1,2.602996440E0
7.699480956E0,-1.277597427E0,2.690353155E0,-4.836273193E-2,2.978690021E0
7.704222675E0,-3.631565094E0,3.064779282E0,-3.189737797E-1,4.762654864E0
7.708964446E0,-5.741004944E0,3.443290710E0,-7.579362392E-1,6.737199420E0
7.713706217E0,-7.433991432E0,3.723565578E0,-1.386439800E0,8.429198334E0
7.718447988E0,-8.479228020E0,3.852132320E0,-2.348033905E0,9.604660038E0
7.723189706E0,-8.856580734E0,3.823870897E0,-3.495562077E0,1.026060257E1
7.727931477E0,-8.823783875E0,3.632897139E0,-4.360594749E0,1.049151515E1
7.732673248E0,-8.397185326E0,3.296716452E0,-4.756486893E0,1.019829536E1
7.737415019E0,-7.466596603E0,2.840777874E0,-4.751306057E0,9.294890694E0
7.742156738E0,-6.447839737E0,2.382292032E0,-4.436854362E0,8.181419757E0
7.746898509E0,-5.476114273E0,1.964738011E0,-3.958971500E0,7.037149872E0
7.751640279E0,-4.654826164E0,1.567373276E0,-3.442500591E0,5.997905962E0
7.756381998E0,-3.912154198E0,1.186461329E0,-2.835617781E0,4.975275786E0
7.761123769E0,-3.410213470E0,8.800370097E-1,-2.168410778E0,4.135943224E0
7.765865540E0,-3.172080040E0,6.097708941E-1,-1.573024392E0,3.592814783E0
7.770607311E0,-3.223173141E0,4.542068839E-1,-1.171700239E0,3.459484130E0
7.775349029E0,-3.460037231E0,4.028023779E-1,-1.183068275E0,3.678825620E0
7.780090800E0,-3.748353004E0,4.207889140E-1,-1.476657987E0,4.050645920E0
7.784832571E0,-3.915467262E0,7.272466421E-1,-1.655909061E0,4.312981148E0
7.789574290E0,-4.008934021E0,1.178325057E0,-1.688262582E0,4.506687527E0
7.794316061E0,-3.990354538E0,1.554473400E0,-1.912510633E0,4.690097420E0
7.799057831E0,-3.852624893E0,1.938113928E0,-2.311329126E0,4.892979307E0
7.803799602E0,-4.021732330E0,2.215358734E0,-2.677107573E0,5.314983557E0
7.808541321E0,-4.231637001E0,2.543022394E0,-3.064067841E0,5.810527200E0
7.813283092E0,-4.151679993E0,2.822968960E0,-3.496669054E0,6.118193768E0
7.818024863E0,-3.652829170E0,3.031809330E0,-3.756811619E0,6.053813864E0
7.822766634E0,-2.912708282E0,3.016937971E0,-3.721391678E0,5.606651432E0
7.827508352E0,-2.044511795E0,2.732685089E0,-3.220646858E0,4.692564593E0
7.832250123E0,-1.130541801E0,2.127357244E0,-2.171852589E0,3.243565519E0
7.836991894E0,-4.278545380E-1,1.315068483E0,-6.530735493E-1,1.529369047E0
7.841733613E0,1.200933456E-1,5.810531378E-1,1.052627325E0,1.208333334E0
7.846475384E0,5.606784821E-1,-5.285578966E-2,2.690529585E0,2.748836762E0
7.851217154E0,7.574987411E-1,-5.883111954E-1,4.093581676E0,4.204441146E0
7.855958873E0,9.314327240E-1,-9.238535166E-1,5.338799477E0,5.497622403E0
