Time (s),Linear Acceleration x (m/s^2),Linear Acceleration y (m/s^2),Linear Acceleration z (m/s^2),Absolute acceleration (m/s^2),labels
0.044207043,0.0,0.0,0.0,0.0,
0.048949283,0.0795249939,0.009655237198,-0.2336301804,0.246982812,
0.053691522,0.159589529,0.03112578392,-0.4529190063,0.4812205924,
0.058433762,0.1767761707,0.05587458611,-0.5917387009,0.6201019868,
0.063176001,0.1467871666,0.06924796104,-0.6238822937,0.6446478642,
0.067918241,0.05827736855,0.1106655598,-0.5972213745,0.6101774234,
0.07266048,-0.01549577713,0.1568391323,-0.5137090683,0.537341269,
0.07740272,-0.02332377434,0.1536853313,-0.4767093658,0.5014130024,
0.082144908,-0.03844165802,0.1548280716,-0.4750003815,0.5010737024,
0.086887147,0.002198219299,0.1293530464,-0.518415451,0.534314161,
0.091629387,0.05777597427,0.1073386669,-0.532875061,0.5466401772,
0.096371626,0.1679570675,0.07722139359,-0.5375843048,0.5684800831,
0.101113866,0.2487330437,0.08120369911,-0.505982399,0.5696317722,
0.105856105,0.2900428772,0.06355881691,-0.4440574646,0.5341831387,
0.110598345,0.3061959743,0.02320194244,-0.3861722946,0.4933795152,
0.115340585,0.3260996342,0.07121062279,-0.3401384354,0.4765564808,
0.120082824,0.3744928837,0.124008894,-0.3091926575,0.5012217325,
0.124825064,0.4433429241,0.1840305328,-0.2604780197,0.5461400774,
0.129567303,0.4843527079,0.2466161251,-0.1921882629,0.5765009863,
0.134309543,0.5038020611,0.2983417511,-0.1639432907,0.6080310188,
0.139051783,0.4825811386,0.299074173,-0.1804714203,0.5957347143,
0.143794022,0.4542782307,0.3013386726,-0.1895294189,0.5771439224,
0.148536262,0.4166291952,0.2706110477,-0.1548194885,0.5203645832,
0.153278501,0.3785312176,0.2217459679,-0.1813240051,0.4746952199,
0.158020741,0.3188641071,0.1160850525,-0.2184333801,0.4035631299,
0.16276298,0.2794611454,0.03590345383,-0.2105894089,0.3517605562,
0.16750522,0.2453486919,-0.01788330078,-0.166302681,0.296938335,
0.17224746,0.1607193947,-0.04217219353,-0.1096630096,0.1990858946,
0.176989699,0.09398198128,-0.05680990219,-0.0570306778,0.1237435897,
0.181731939,0.05091547966,-0.08788394928,-0.04284000397,0.1102326655,
0.186474178,-0.009398698807,-0.109607935,-0.09140396118,0.1430276864,
0.191216418,-0.04077243805,-0.1248393059,-0.1731004715,0.2172809638,
0.195958658,0.008829593658,-0.1546185017,-0.3034763336,0.3407091543,
0.200700897,0.06702136993,-0.1519391537,-0.497759819,0.5247306051,
0.205443137,0.10536623,-0.1430466175,-0.6755752563,0.6985458497,
0.210185376,0.1406226158,-0.1395847797,-0.7702465057,0.7953227712,
0.214927616,0.1355381012,-0.153003931,-0.7934956551,0.8193998623,
0.219669855,0.109736681,-0.1502449512,-0.749546051,0.7722920219,
0.224412095,0.04985141754,-0.1293008327,-0.6190266609,0.634348387,
0.229154335,0.0291800499,-0.1139538288,-0.4995508194,0.5132133782,
0.233896574,0.0166156292,-0.1111006737,-0.3859167099,0.4019342556,
0.238638814,-0.006507396698,-0.1109917164,-0.2707920074,0.2927282334,
0.243381053,0.007115364075,-0.09010887146,-0.1353034973,0.1627183871,
0.248123293,0.0544989109,-0.0744240284,-0.05934524536,0.1096855753,
0.252865533,0.2056391239,-0.04940223694,-0.01577854156,0.2120777986,
0.257607772,0.3558702469,-0.02207660675,0.0875453949,0.3671446654,
0.262350012,0.4800577164,0.007583141327,0.2870473862,0.5593828,
0.267092251,0.5606286526,0.07453250885,0.5084400177,0.7605069576,
0.271834491,0.517000556,0.1144526005,0.7376365662,0.9080179934,
0.27657673,0.4434521198,0.1416137218,0.9185714722,1.029795018,
0.28131897,0.3052957058,0.1395244598,1.066523552,1.118098846,
0.28606121,0.1738892794,0.1248660088,1.125936508,1.146107334,
0.290803449,0.06955289841,0.06015920639,1.044386864,1.048427707,
0.295545689,-0.02298879623,-0.04897785187,0.9252929688,0.9268734502,
0.300287928,-0.0647175312,-0.1028766632,0.8277673721,0.8366425695,
0.305030168,-0.1320580244,-0.1729261875,0.7864980698,0.8160404413,
0.309772408,-0.1774413586,-0.2729399204,0.8145742416,0.8772188045,
0.314514647,-0.2037217617,-0.2824776173,0.8660869598,0.9334895728,
0.319256887,-0.2302216291,-0.252715826,0.9077682495,0.9700054031,
0.323999126,-0.3275403976,-0.2597720623,1.005782127,1.089202426,
0.328741366,-0.4187765121,-0.1783061028,1.08872509,1.180037777,
0.333483605,-0.3623808622,-0.09915137291,1.10039711,1.162765963,
0.338225845,-0.2571731806,0.02743601799,1.046587944,1.078071011,
0.342968085,-0.1439450979,0.1611771584,0.9210252762,0.9460369057,
0.347710324,0.0006036758423,0.3026378155,0.7056026459,0.7677663093,
0.352452564,0.1286454201,0.403188467,0.403506279,0.5847460143,
0.357194803,0.2568012476,0.4642512798,0.1570339203,0.5532953856,
0.361937043,0.3800896406,0.4518237114,-0.00209903717,0.5904381484,
0.366679283,0.371093154,0.3532664776,-0.07072353363,0.5172128685,
0.371421522,0.3476440907,0.1581590176,0.01117801666,0.3820937538,
0.376163762,0.3578230143,-0.09676170349,0.1708297729,0.4081457437,
0.380906001,0.3876568079,-0.3424315453,0.3531064987,0.6262757886,
0.385648241,0.4091881514,-0.5791547298,0.562666893,0.9052343215,
0.39039048,0.460714221,-0.805120945,0.7734708786,1.207780828,
0.39513272,0.5160384178,-1.013897657,0.9598236084,1.488470849,
0.39987496,0.5090228319,-1.206184626,1.136475563,1.733655762,
0.404617199,0.4405106306,-1.373230219,1.258905411,1.91432852,
0.409359439,0.3609340191,-1.508708477,1.339838982,2.049790997,
0.414101678,0.2842543125,-1.570974231,1.325585365,2.075075206,
0.418843918,0.1910369396,-1.667764425,1.281235695,2.111752399,
0.423586158,0.0859490633,-1.728028178,1.181199074,2.094922404,
0.428328397,-0.05733299255,-1.790317535,1.080528259,2.091904699,
0.433070637,-0.1800659895,-1.895016432,0.9412698746,2.123558338,
0.437812876,-0.2504858971,-1.968915105,0.8892230988,2.174876455,
0.442555116,-0.3103709221,-1.975147367,0.8973455429,2.191521447,
0.447297355,-0.3531348705,-1.962516665,0.9532432556,2.210169361,
0.452039595,-0.336107254,-1.905793548,1.013995171,2.184766198,
0.456781835,-0.2737060785,-1.853171229,1.058423996,2.151608695,
0.461524074,-0.1993910074,-1.783453226,1.027599335,2.067951299,
0.466266314,-0.1134947538,-1.732500434,0.9057607651,1.958275102,
0.471008553,0.009913802147,-1.647883058,0.7506418228,1.810823018,
0.475750793,0.1281318665,-1.572386026,0.6501655579,1.70632085,
0.480493033,0.2041839361,-1.470017552,0.49243927,1.563694062,
0.485235272,0.3318047523,-1.378042698,0.2755384445,1.443958969,
0.489977512,0.4825630188,-1.278895617,-0.01434993744,1.366984633,
0.494719751,0.6182992458,-1.169496775,-0.3412332535,1.366183295,
0.499461991,0.7294068933,-1.039646864,-0.6790323257,1.440133646,
0.50420423,0.7853899002,-0.9338567257,-0.9899940491,1.571309612,
0.50894647,0.8485212922,-0.8441957235,-1.2129879,1.704111043,
0.51368871,0.9496071935,-0.7486283779,-1.391748428,1.843681631,
0.518430949,1.076426744,-0.651727438,-1.474661827,1.938574397,
0.523173189,1.176442146,-0.4942076206,-1.500638485,1.969815514,
0.527915428,1.259480596,-0.3550372124,-1.441719532,1.947022856,
0.532657668,1.290240526,-0.2010302544,-1.315224648,1.853361716,
0.537399908,1.352257729,-0.1012253761,-1.157284737,1.782738204,
0.542142147,1.39538908,0.01081299782,-0.9822540283,1.706473141,
0.546884387,1.381931305,0.05168843269,-0.7545852661,1.575374479,
0.551626626,1.364653707,0.10709095,-0.5576257706,1.478071281,
0.556368866,1.351026177,0.09836602211,-0.4004249573,1.412546549,
0.561111105,1.303096056,0.08765125275,-0.2825565338,1.336256064,
0.565853345,1.159477592,0.0180785656,-0.2321310043,1.182624168,
0.570595585,1.001319885,-0.07184672356,-0.1608076096,1.016691965,
0.575337824,0.8640608191,-0.1486470699,-0.1803445816,0.8951096127,
0.580080064,0.7566856146,-0.2003836632,-0.211730957,0.8108987174,
0.584822303,0.6978917718,-0.2793354988,-0.2098207474,0.7804524278,
0.589564543,0.601693213,-0.3284609318,-0.09654331207,0.6922730078,
0.594306783,0.5490629077,-0.3908801079,0.0370054245,0.6750012865,
0.599049022,0.5542546511,-0.4334294796,0.1670417786,0.7231613152,
0.603791262,0.5671285391,-0.4516170025,0.2675523758,0.7727722631,
0.608533501,0.5831035972,-0.4172012806,0.3554611206,0.8002620332,
0.613275741,0.6140212417,-0.3423902988,0.4332332611,0.8257991647,
0.61801798,0.7169018388,-0.2560806274,0.5318746567,0.9286636553,
0.62276022,0.8012171984,-0.1347074509,0.5966758728,1.008026385,
0.62750246,0.8887258768,-0.01192474365,0.6707267761,1.11348565,
0.632244699,0.9677096605,0.1026580334,0.7041425705,1.201173351,
0.636986939,1.061872363,0.2278718948,0.6616640091,1.27173023,
0.641729178,1.173335552,0.3324956894,0.6199359894,1.368060793,
0.646471418,1.313660502,0.4807424545,0.5670661926,1.509430783,
0.651213658,1.434948564,0.5459725857,0.5055789948,1.616407611,
0.655955897,1.456344604,0.6140837669,0.3809223175,1.625773752,
0.660698137,1.420859575,0.6183025837,0.2196798325,1.565055669,
0.665440376,1.309474587,0.6183695793,0.01970005035,1.448272324,
0.670182616,1.184177041,0.6213600636,-0.1617479324,1.347043424,
0.674924855,1.099342823,0.5844402313,-0.3676433563,1.298185913,
0.679667095,1.004607677,0.5816764832,-0.5147027969,1.269843725,
0.684409335,0.9239518642,0.5869657993,-0.6628408432,1.279677256,
0.689151574,0.8434741497,0.5862495899,-0.7764158249,1.287617473,
0.693893814,0.7801622748,0.5586838722,-0.8676490784,1.293675294,
0.698636053,0.7340350747,0.5096933842,-0.9843425751,1.329483036,
0.703378293,0.6764869094,0.4730637074,-1.13116169,1.400339451,
0.708120533,0.6552336812,0.4610290527,-1.224799156,1.463561388,
0.712862772,0.5965617895,0.4808149338,-1.341743469,1.545103397,
0.717605012,0.5601032376,0.487300396,-1.410593987,1.594036608,
0.722347251,0.4884286523,0.4710018635,-1.39841795,1.554341682,
0.727089491,0.4601162672,0.5103580952,-1.312874794,1.481827449,
0.73183173,0.5108247995,0.5692062378,-1.247116089,1.462954632,
0.73657397,0.5643976927,0.6377544403,-1.212785721,1.481932754,
0.74131621,0.6159092784,0.661067009,-1.147814751,1.460764365,
0.746058449,0.679363966,0.741499424,-1.114218712,1.500946412,
0.750800689,0.730486393,0.8191468716,-1.152256012,1.591322056,
0.755542928,0.7240822911,0.8891932964,-1.116378784,1.600394162,
0.760285168,0.7032866478,0.937456131,-1.095083237,1.603946197,
0.765027408,0.7083460093,1.009147167,-1.104930878,1.655597873,
0.769769647,0.7008379102,1.039853334,-1.131471634,1.688992834,
0.774511887,0.6781270504,1.053640127,-1.127080917,1.68532644,
0.779254126,0.6162377,1.038841963,-1.127714157,1.652477155,
0.783996366,0.5250698924,1.024372816,-1.183318138,1.650842171,
0.788738605,0.4239531159,0.9963014126,-1.210354805,1.623980142,
0.793480845,0.3486999273,0.9692015648,-1.216185093,1.593753272,
0.798223085,0.2825142145,0.9193971157,-1.174794197,1.518303903,
0.802965324,0.230322957,0.9042100906,-1.095974922,1.439376804,
0.807707564,0.1137689352,0.8900985718,-0.9275598526,1.290575886,
0.812449803,0.03585064411,0.8673508167,-0.7223396301,1.129317161,
0.817192043,0.02240777016,0.8382406235,-0.5280857086,0.9909712239,
0.821934283,0.02059137821,0.8144907951,-0.3185052872,0.8747941919,
0.826676522,-0.01262772083,0.8100676537,-0.0888671875,0.8150254228,
0.831418762,-0.0815628767,0.7960822582,0.144156456,0.8131300932,
0.836161001,-0.09038221836,0.8008534908,0.4354419708,0.9160485626,
0.840903241,0.01819252968,0.8358952999,0.7657651901,1.133776101,
0.84564548,0.2058546543,0.8961155415,1.068385124,1.40955524,
0.85038772,0.4367535114,1.000050068,1.298395157,1.696078934,
0.85512996,0.589402318,1.05924201,1.472943306,1.907603395,
0.859872199,0.63820678,1.062166691,1.532847404,1.971072586,
0.864614439,0.5931748748,1.03320837,1.485832214,1.904487684,
0.869356678,0.5330936909,0.9872071743,1.337137222,1.74548069,
0.874098918,0.409792304,0.9531216621,1.132389069,1.535798046,
0.878841158,0.2966221571,0.9667274952,0.9169635773,1.36505273,
0.883583397,0.1810911894,0.9351468086,0.7907552719,1.23797717,
0.888325637,0.07496631145,0.9371213913,0.7056350708,1.175473225,
0.893067876,-0.03824055195,0.9296388626,0.6804456711,1.152691228,
0.897810116,-0.1393629313,0.9125077724,0.6934976578,1.154569817,
0.902552355,-0.2282768488,0.928539753,0.7041549683,1.187489205,
0.907294595,-0.178984642,0.8965566158,0.7029008865,1.153221108,
0.912036835,-0.1089390516,0.9168801308,0.6350078583,1.120612275,
0.916779074,0.02683269978,0.8989338875,0.5245752335,1.041144228,
0.921521314,0.1518880129,0.9287865162,0.4956331253,1.063657161,
0.926263553,0.2543920279,0.95622015,0.4858169556,1.102311387,
0.931005793,0.291559577,0.9575071335,0.5069074631,1.121954577,
0.935748033,0.3755589724,0.9254937172,0.5849494934,1.157475301,
0.940490272,0.4443795681,0.9126446247,0.70540905,1.236121086,
0.945232512,0.541079998,0.877887249,0.8920097351,1.363500991,
0.949974751,0.6516433358,0.8448550701,1.099308968,1.531959312,
0.954716991,0.6191470623,0.7656812668,1.224901199,1.571621403,
0.95945923,0.5207051039,0.6167385578,1.271635056,1.506172622,
0.96420147,0.4615757465,0.4676361084,1.256570816,1.417993623,
0.96894371,0.5343028307,0.3568713665,1.101307869,1.275035572,
0.973685949,0.6521676779,0.2610108852,0.8420944214,1.09661861,
0.978428189,0.7644963264,0.1854095459,0.5744915009,0.9741005171,
0.983170428,0.8186095953,0.1637554169,0.446062088,0.9465246391,
0.987912668,0.8624845743,0.1768882275,0.4632205963,0.9948579832,
0.992654908,0.8868365884,0.1628317833,0.5490188599,1.055658578,
0.997397147,0.9422759414,0.1859221458,0.6508255005,1.1601831,
1.002139387,0.9238924384,0.1673924923,0.7495164871,1.201404365,
1.006881626,0.8582540154,0.1478643417,0.8260755539,1.200360212,
1.011623866,0.7239701748,0.108247757,0.861536026,1.130528511,
1.016366105,0.5550045967,0.03449964523,0.9109172821,1.067235036,
1.021108345,0.387737155,-0.08747982979,0.9885368347,1.065456661,
1.025850585,0.2726188898,-0.2166597843,1.037104607,1.094005707,
1.030592824,0.2045565844,-0.3647191525,0.9828586578,1.068117315,
1.035335064,0.1349711418,-0.5339152813,0.8809671402,1.038934954,
1.040077303,-0.003877282143,-0.726714015,0.843506813,1.11338764,
1.044819543,-0.229236722,-0.9624882936,0.8558101654,1.308183561,
1.049561783,-0.4865238667,-1.208151579,0.8985710144,1.582329162,
1.054304022,-0.8000799417,-1.445104599,0.9787826538,1.920018411,
1.059046262,-1.117998362,-1.635944247,1.11770916,2.274974216,
1.063788501,-1.450227261,-1.829297304,1.298462868,2.671234462,
1.068530741,-1.779836178,-1.96864593,1.568677902,3.082877549,
1.07327298,-1.934457064,-2.050182819,1.904391289,3.401775993,
1.07801522,-1.880588412,-2.043802261,2.238862038,3.567386114,
1.08275746,-1.630025744,-2.024161816,2.457962036,3.577120679,
1.087499699,-1.349380136,-1.93652606,2.595777512,3.508421414,
1.092241939,-1.047548056,-1.857158184,2.583631516,3.349857498,
1.096984178,-0.7624225616,-1.728368402,2.412630081,3.064201267,
1.101726418,-0.4938182831,-1.623835325,2.207346916,2.784434964,
1.106468658,-0.1774398088,-1.497614026,1.958263397,2.471665064,
1.111210897,0.04833233356,-1.351531863,1.689294815,2.163952718,
1.115953137,0.2077921629,-1.189717054,1.352730751,1.813417971,
1.120695376,0.3011240959,-1.049784899,0.9916353226,1.475149032,
1.125437616,0.2901277542,-0.9287682176,0.627409935,1.157768432,
1.130179855,0.1890861988,-0.8479782343,0.4172811508,0.9638175321,
1.134922095,-0.03517818451,-0.8313502073,0.3367509842,0.8976535508,
1.139664335,-0.2866640091,-0.828922689,0.3185977936,0.93316324,
1.144406574,-0.5388127565,-0.8456790447,0.3006601334,1.046847051,
1.149148814,-0.8016018867,-0.8627990484,0.2090148926,1.196108276,
1.153891053,-1.085154057,-0.8660845757,0.07486820221,1.390419745,
1.158633293,-1.366323829,-0.8913571239,-0.006391525269,1.631379532,
1.163375533,-1.535660028,-0.8836134672,-0.07318496704,1.77324012,
1.168117772,-1.569899321,-0.8475567102,-0.137544632,1.789372734,
1.172860012,-1.522108078,-0.8309255838,-0.1685171127,1.742311208,
1.177602251,-1.38324213,-0.8264706731,-0.1758031845,1.620900776,
1.182344491,-1.282825708,-0.8533702493,-0.1810121536,1.551337481,
1.18708673,-1.173207045,-0.8805797696,-0.1341018677,1.473030485,
1.19182897,-1.0425421,-0.9059166312,-0.01618099213,1.381246103,
1.19657121,-0.8981927633,-0.8988153934,0.1820526123,1.283652019,
1.201313449,-0.7664099932,-0.857624054,0.4484758377,1.234517668,
1.206055689,-0.6446382999,-0.8186492324,0.680390358,1.244458172,
1.21079798,-0.5853691101,-0.7869762182,0.894692421,1.327577904,
1.215540168,-0.4810373783,-0.7031490207,1.010443687,1.321670137,
1.220282408,-0.4893616438,-0.684191823,1.066191673,1.358071409,
1.225024647,-0.4451644421,-0.6390203834,1.145662308,1.385301611,
1.229766887,-0.3553364277,-0.5747699738,1.232161522,1.405292324,
1.234509126,-0.3121310472,-0.5748785734,1.383060455,1.529956662,
1.239251366,-0.2785872221,-0.5651882887,1.576830864,1.698070733,
1.243993605,-0.2343841791,-0.5696033239,1.720513344,1.827443585,
1.248735845,-0.2783983946,-0.6617504358,1.726239204,1.869577786,
1.253478085,-0.3903082609,-0.7980604768,1.632770538,1.858811635,
1.258220324,-0.4455531836,-0.9183208346,1.483366013,1.800612541,
1.262962564,-0.3729170561,-1.076866984,1.263788223,1.701725685,
1.267704803,0.1878097057,-1.174266815,0.7356014252,1.398314877,
1.272447043,1.207060814,-1.318442702,-0.07406997681,1.789070521,
1.277189283,1.06818676,-1.575348139,-0.3701982498,1.939018168,
1.281931522,0.05731964111,-1.804869533,-0.3027534485,1.83098313,
1.286673762,-1.060895801,-1.925053835,-0.1306972504,2.201911428,
1.291416001,-1.477322221,-1.898886919,-0.0903673172,2.40757528,
1.296158241,-1.321411371,-1.765263438,-0.1523160934,2.210312921,
1.30090048,-0.8532140255,-1.567222118,-0.3063659668,1.810530156,
1.30564272,-0.5482434034,-1.433437347,-0.6046600342,1.64952333,
1.31038496,-0.550983429,-1.394668341,-0.9730043411,1.787573766,
1.315127199,-0.7581102848,-1.34107852,-1.342335701,2.043303192,
1.319869439,-0.9776732922,-1.270691872,-1.655648232,2.304706915,
1.324611678,-1.083920121,-1.190829515,-1.927565575,2.511666142,
1.329353918,-1.048237205,-1.051389694,-2.112883091,2.582343215,
1.334096158,-0.9111615419,-0.8906393051,-2.27865839,2.610696801,
1.338838397,-0.7941961288,-0.7609790564,-2.350973606,2.595556494,
1.343580637,-0.673378706,-0.605094552,-2.349242687,2.517641655,
1.348322876,-0.5373153687,-0.4592036009,-2.226042271,2.335559878,
1.353065116,-0.431853056,-0.3738648891,-2.034263134,2.112935994,
1.357807355,-0.4640296698,-0.4039098024,-1.881425858,1.979451924,
1.362549595,-0.5397677422,-0.4655069113,-1.812601089,1.947708554,
1.367291835,-0.605796814,-0.5533751249,-1.796452522,1.974957081,
1.372034074,-0.6407492161,-0.648018837,-1.794705868,2.012823172,
1.376776314,-0.6307089329,-0.732535243,-1.769233227,2.016082303,
1.381518553,-0.6143473387,-0.778190732,-1.693971634,1.962789689,
1.386260793,-0.6487135887,-0.8400107622,-1.580982685,1.904193701,
1.391003033,-0.7618539333,-0.8319996595,-1.463741302,1.848021496,
1.395745272,-0.948035717,-0.8905500174,-1.303925514,1.841758073,
1.400487512,-1.09466958,-0.9322173595,-1.137360573,1.833281148,
1.405229751,-1.13480258,-0.9213474989,-1.045110703,1.796918053,
1.409971991,-1.161657095,-0.9106541872,-1.026864052,1.798106792,
1.41471423,-1.175312996,-0.9238612652,-1.072853088,1.840079896,
1.41945647,-1.221422672,-0.9607475996,-1.154307365,1.935803396,
1.42419871,-1.200298309,-0.8969532251,-1.26888752,1.963496029,
1.428940949,-1.10567975,-0.7900575399,-1.337883949,1.90700081,
1.433683189,-1.079159737,-0.6544356346,-1.418849945,1.898948894,
1.438425428,-1.013571501,-0.5307387114,-1.526157856,1.907398377,
1.443167668,-0.9476745129,-0.3996895552,-1.616902351,1.91630163,
1.447909908,-0.8769241571,-0.2875761986,-1.703122139,1.937090877,
1.452652147,-0.765837431,-0.1417336464,-1.696640015,1.866864413,
1.457394387,-0.683965683,-0.04345965385,-1.659842968,1.795766264,
1.462136626,-0.612234354,-0.00221657753,-1.573750019,1.688645889,
1.466878866,-0.5672706366,-0.01065325737,-1.459992409,1.566361165,
1.471621105,-0.5582969189,-0.06879878044,-1.289928436,1.407246991,
1.476363345,-0.5729382038,-0.1478991508,-1.142407417,1.286556276,
1.481105585,-0.5941723585,-0.2696137428,-0.9528083801,1.154805685,
1.485847824,-0.5929421186,-0.402905345,-0.7521705627,1.039073447,
1.490590064,-0.60475564,-0.5214651823,-0.5690937042,0.9805727738,
1.495332303,-0.5339132547,-0.5798978806,-0.4536094666,0.909453937,
1.500074491,-0.4255744219,-0.5878235102,-0.3481655121,0.8049032808,
1.50481673,-0.3749037981,-0.6216363907,-0.2240438461,0.7597238347,
1.50955897,-0.3836330175,-0.5857080221,-0.1027154922,0.7076571569,
1.51430121,-0.3605545759,-0.5851659775,0.0158662796,0.6875104088,
1.519043449,-0.3937482834,-0.5843538046,0.174788475,0.7259876656,
1.523785689,-0.4707036018,-0.56424582,0.2904911041,0.790139423,
1.528527928,-0.502609849,-0.5847361088,0.3345794678,0.8405215033,
1.533270168,-0.5300346613,-0.5741535425,0.3741407394,0.8663546188,
1.538012408,-0.5386403799,-0.565992713,0.361456871,0.8608903993,
1.542754647,-0.509246707,-0.5459669828,0.3182067871,0.8115834611,
1.547496887,-0.4468386173,-0.492675662,0.2683439255,0.7172186,
1.552239126,-0.3875449896,-0.4420975447,0.1927728653,0.6187105426,
1.556981366,-0.3387081623,-0.394099474,0.08195972443,0.5260751002,
1.561723605,-0.2908935547,-0.3080224991,-0.05687236786,0.4274709187,
1.566465845,-0.2515230179,-0.2457346916,-0.2022886276,0.4056723506,
1.571208085,-0.1827894449,-0.1687514782,-0.3663320541,0.4428184915,
1.575950324,-0.1066823006,-0.07926988602,-0.5061321259,0.5232920379,
1.580692564,-0.006889224052,-0.008280754089,-0.6146945953,0.6147889702,
1.585434803,0.05891001225,0.05863642693,-0.7017364502,0.7066418227,
1.590177043,0.1263633966,0.0951859951,-0.7172412872,0.734481549,
1.594919283,0.1286911964,0.1157279015,-0.7043638229,0.7253156322,
1.599661522,0.135389328,0.1200442314,-0.679816246,0.7034849082,
1.604403762,0.09176695347,0.1269419193,-0.5814428329,0.6021720623,
1.609146001,0.0052485466,0.1384649277,-0.4356107712,0.4571179579,
1.613888241,-0.1070673466,0.1160821915,-0.3664417267,0.3990213415,
1.61863048,-0.1923809052,0.06454157829,-0.3449831009,0.4002366399,
1.62337272,-0.2745584249,0.03897547722,-0.3758897781,0.4671129862,
1.62811496,-0.3157604933,-0.01070165634,-0.4495534897,0.5494702491,
1.632857199,-0.3428208828,-0.06505513191,-0.5325908661,0.6367192148,
1.637599439,-0.3825670481,-0.1407444477,-0.5749607086,0.7048023569,
1.642341678,-0.4306890965,-0.1518454552,-0.5601577759,0.722721851,
1.647083918,-0.5398244858,-0.1510753632,-0.4907655716,0.7450403258,
1.651826105,-0.6884491444,-0.1292843819,-0.3024215698,0.7629780349,
1.656568345,-0.8431253433,-0.09646201134,-0.09326076508,0.8537346394,
1.661310585,-0.9967384338,-0.03630375862,0.1988134384,1.017021264,
1.666052824,-1.187642813,0.005312204361,0.4447517395,1.268198636,
1.670795064,-1.296278954,0.03777551651,0.6543226242,1.452550933,
1.675537303,-1.360736966,0.04678940773,0.7942886353,1.57628956,
1.680279543,-1.41452837,0.06819176674,0.8839797974,1.669419333,
1.685021783,-1.433990002,0.08316063881,0.9138841629,1.702476807,
1.689764022,-1.398090005,0.1135346889,0.8792495728,1.655483494,
1.694506262,-1.340835094,0.150277853,0.7609405518,1.54901669,
1.699248501,-1.262845874,0.2155468464,0.6162023544,1.421599622,
1.703990741,-1.217159271,0.2955355644,0.4639692307,1.3356966,
1.70873298,-1.189941883,0.3644046783,0.3589515686,1.29522148,
1.71347522,-1.105371833,0.467918396,0.2984313965,1.236873402,
1.71821746,-0.97374928,0.5249993801,0.2988739014,1.145922169,
1.722959699,-0.7669948339,0.5169420242,0.4531202316,1.029965085,
1.727701939,-0.4639655352,0.5275235176,0.7989778519,1.063912913,
1.732444178,-0.08348953724,0.5349705219,1.278862,1.38875915,
1.737186418,0.2727856636,0.5891673565,1.88561058,1.994256115,
1.741928658,0.4803435802,0.6489162445,2.621779442,2.743273535,
1.746670897,0.5730296373,0.6969320774,3.377748489,3.49617822,
1.751413137,0.5704447627,0.6706390381,4.077578545,4.171547762,
1.756155376,0.5040394068,0.5985963345,4.643013954,4.708497836,
1.760897616,0.407143116,0.4902484417,5.026924133,5.067156529,
1.765639855,0.3386644125,0.314614296,5.251386642,5.271692082,
1.770382095,0.2349278927,0.1149010658,5.300114632,5.306562774,
1.775124335,0.08443927765,-0.08959460258,5.168731689,5.17019772,
1.779866522,-0.179684639,-0.3558185101,4.85039711,4.866748967,
1.784608762,-0.4264576435,-0.585258007,4.428957939,4.487767985,
1.789351001,-0.6855045557,-0.8013989925,3.880574226,4.021319829,
1.794093241,-0.8577487469,-0.9773434401,3.174237251,3.430264602,
1.79883548,-0.9924098253,-1.088724017,2.429471016,2.841219221,
1.80357772,-1.066910505,-1.15196383,1.732094765,2.337834675,
1.80831996,-1.152026892,-1.150327682,1.067475319,1.946772532,
1.813062199,-1.205981135,-1.100821018,0.5404891968,1.719978484,
1.817804439,-1.191727757,-0.9965801239,0.04802131653,1.554249992,
1.822546678,-1.162810683,-0.8762415648,-0.3551273346,1.498680549,
1.827288918,-1.160679936,-0.7307258844,-0.662024498,1.522962465,
1.832031158,-1.066767812,-0.5464100838,-0.8466243744,1.467423039,
1.836773397,-0.9728091955,-0.3695187569,-0.9688692093,1.421833108,
1.841515637,-0.8816261292,-0.1957991123,-1.012160301,1.356491946,
1.846257876,-0.7764831781,-0.04008603096,-0.9956912994,1.263302885,
1.851000116,-0.688406229,0.0567407608,-0.9887952805,1.206166969,
1.855742355,-0.6316702366,0.09938669205,-0.9794750214,1.169724891,
1.860484595,-0.5606924295,0.07360911369,-1.008314133,1.156067339,
1.865226835,-0.4111398458,-0.01789665222,-1.046638489,1.124637003,
1.869969074,-0.2716220617,-0.1341619492,-1.094511986,1.135664766,
1.874711314,-0.2042906284,-0.2677555084,-1.137671471,1.186475473,
1.879453553,-0.1943855286,-0.3970036507,-1.135545731,1.21854903,
1.884195793,-0.2104039192,-0.5027971268,-1.104925156,1.232044788,
1.888938033,-0.2276642323,-0.5661532879,-1.021857262,1.190190242,
1.893680272,-0.2739782333,-0.6350463629,-0.9316625595,1.160320249,
1.898422512,-0.3388351202,-0.6904425621,-0.8389453888,1.138134234,
1.903164751,-0.4191374779,-0.66560781,-0.7913160324,1.115746855,
1.907906991,-0.4714585543,-0.6729052067,-0.8124771118,1.155505795,
1.91264923,-0.5099971294,-0.6596843004,-0.8831129074,1.214565295,
1.91739147,-0.5323832035,-0.652173996,-1.012661934,1.316908117,
1.92213371,-0.5172846317,-0.6429693699,-1.177168846,1.43760895,
1.926875949,-0.4292082787,-0.6484901905,-1.393383026,1.59570534,
1.931618189,-0.4023436308,-0.6517248154,-1.608756065,1.781774876,
1.936360428,-0.363119483,-0.6359001398,-1.811487675,1.953896707,
1.941102668,-0.2980487347,-0.632116437,-1.973119259,2.093228093,
1.945844908,-0.1838290691,-0.580821991,-2.029335976,2.118809056,
1.950587147,-0.0781635046,-0.5062923431,-2.047255993,2.110378774,
1.955329387,0.007054805756,-0.4253966808,-2.110535145,2.152991106,
1.960071574,0.06700253487,-0.3550789356,-2.152160645,2.182284544,
1.964813814,0.07481384277,-0.2859697342,-2.227207184,2.24673711,
1.969556105,0.1065504551,-0.1848316193,-2.216239929,2.226484932,
1.974298293,0.166674614,-0.08767437935,-2.246079922,2.253961455,
1.979040533,0.2573412657,-0.02793240547,-2.278453827,2.293110679,
1.983782772,0.3450102806,0.03523850441,-2.35878706,2.384145599,
1.988525012,0.4486262798,0.02326822281,-2.463187218,2.50381673,
1.993267251,0.5298119783,0.02031040192,-2.577407837,2.631376902,
1.998009491,0.5717306137,0.02433037758,-2.65857935,2.719469069,
2.00275173,0.6054974794,-0.01934361458,-2.682982922,2.750526991,
2.00749397,0.5979874134,-0.02430152893,-2.648386955,2.71516721,
2.01223621,0.590336442,-0.07641005516,-2.585939407,2.653567077,
2.016978449,0.6042062044,-0.0965180397,-2.440794945,2.516318905,
2.021720689,0.6326431036,-0.1275241375,-2.287174225,2.376481777,
2.026462928,0.6399822235,-0.1885023117,-2.065337181,2.170421166,
2.031205168,0.6815239191,-0.2197062969,-1.830289841,1.965376964,
2.035947408,0.7075333595,-0.2261154652,-1.569963455,1.736812284,
2.040689647,0.6945835352,-0.2700300217,-1.279500008,1.480703471,
2.045431887,0.7196435928,-0.2869894505,-0.9683914185,1.240174095,
2.050174126,0.7472491264,-0.2701745033,-0.6341133118,1.016599829,
2.054916366,0.8447769284,-0.2413105965,-0.3076238632,0.9308658894,
2.059658605,0.9171174765,-0.2339589596,-0.01025390625,0.9465444538,
2.064400845,0.9649516344,-0.2314212322,0.2653694153,1.027184682,
2.069143085,1.000834227,-0.2528924942,0.5385303497,1.164318986,
2.073885324,1.034797549,-0.2671535015,0.7567272186,1.309508704,
2.078627564,1.13628006,-0.2334296703,0.8460054398,1.435739179,
2.083369803,1.21454668,-0.1991043091,0.8686323166,1.506415702,
2.088112043,1.231261969,-0.166118145,0.7409801483,1.446600447,
2.092854283,1.210358024,-0.1505637169,0.5443849564,1.335661244,
2.097596522,1.096503973,-0.1495060921,0.3814563751,1.170547735,
2.102338762,0.9253407121,-0.1101074219,0.2830123901,0.9738968584,
2.107081001,0.7776871324,-0.08263373375,0.2918071747,0.8347317156,
2.111823241,0.6149933338,-0.03860640526,0.2977390289,0.684365242,
2.11656548,0.446877718,-0.04758787155,0.3773412704,0.5868140546,
2.12130772,0.2757456303,-0.0716407299,0.4804201126,0.5585441177,
2.12604996,0.1518044472,-0.08722615242,0.6261663437,0.6501824989,
2.130792199,0.1467878819,-0.0565495491,0.7716608047,0.7875309082,
2.135534439,0.1746249199,-0.06374549866,0.9146900177,0.9333890827,
2.140276678,0.2400541306,-0.006405353546,1.019566536,1.047465004,
2.145018918,0.2926844358,0.03379106522,1.067345619,1.107263603,
2.149761158,0.3083869219,0.09236121178,1.115542412,1.161063288,
2.154503397,0.2917234898,0.1498816013,1.159409523,1.204905611,
2.159245637,0.2879123688,0.2180731297,1.108206749,1.165577805,
2.163987928,0.2633149624,0.2800757885,1.019477844,1.089546829,
2.168730116,0.2272814512,0.312050581,0.9147443771,0.9928694268,
2.173472408,0.2368968725,0.3570911884,0.813085556,0.9190986707,
2.178214647,0.2344437838,0.3865582943,0.7000846863,0.8333725281,
2.182956887,0.224311471,0.4484872818,0.5541086197,0.7473237855,
2.187699126,0.1607952118,0.5214796066,0.4825963974,0.7284884097,
2.192441366,0.1106257439,0.5911169052,0.4471158981,0.7493796616,
2.197183605,0.09261906147,0.6764895916,0.4403648376,0.8124885527,
2.201925845,0.06593513489,0.7679007053,0.4527101517,0.8938486542,
2.206668085,0.03498673439,0.8510868549,0.4171066284,0.9484465434,
2.211410324,0.02806544304,0.9380939007,0.3837032318,1.013921104,
2.216152564,0.03495812416,0.9978752136,0.3786211014,1.067862796,
2.220894803,0.09563052654,1.009101152,0.4350614548,1.103045241,
2.225637043,0.1785681248,0.9814424515,0.5384702682,1.133607556,
2.230379283,0.2860604525,0.9602782726,0.7508764267,1.252110359,
2.235121522,0.3445384502,0.9214646816,1.084186554,1.463989203,
2.239863762,0.3692741394,0.8695304394,1.473928452,1.750688909,
2.244606001,0.3470842838,0.8254234791,1.879802704,2.082174254,
2.249348241,0.3124418259,0.7265951633,2.273454666,2.407105429,
2.25409048,0.2687542439,0.6636459827,2.597902298,2.69476366,
2.25883272,0.1665902138,0.5601894855,2.757864952,2.819110436,
2.26357496,0.06159830093,0.459631443,2.729840279,2.768949866,
2.268317199,-0.07238388062,0.3793947697,2.55943203,2.588411121,
2.273059439,-0.2401492596,0.3225853443,2.344640732,2.378880647,
2.277801678,-0.3964562416,0.2970578671,2.092446327,2.150291273,
2.282543918,-0.5751028061,0.3153305054,1.845650673,1.958724833,
2.287286158,-0.7453026772,0.3395454884,1.604019165,1.801012132,
2.292028397,-0.924135685,0.3461232185,1.40796566,1.719358993,
2.296770637,-1.066547394,0.2972655296,1.221343994,1.648505775,
2.301512876,-1.177765369,0.2433359623,1.120466232,1.643711725,
2.306255168,-1.250934839,0.1555626392,1.081232071,1.660752991,
2.310997408,-1.34110117,0.048153162,1.105957985,1.738969275,
2.315739647,-1.448148489,-0.1414198875,1.177945137,1.872081295,
2.320481887,-1.507605553,-0.3128762245,1.3306036,2.035011541,
2.325224126,-1.519561768,-0.511977911,1.482645035,2.183901474,
2.329966366,-1.538818359,-0.7388226986,1.629396439,2.359820688,
2.334708605,-1.583696127,-0.9481050968,1.74242115,2.538312069,
2.339450845,-1.622324467,-1.142585039,1.841186523,2.706918,
2.344193085,-1.689883471,-1.327156782,1.866168022,2.845985656,
2.348935324,-1.857768059,-1.499528646,1.817598343,3.000591951,
2.353677564,-2.018367767,-1.683693409,1.717139244,3.139617671,
2.358419803,-2.131506443,-1.78625226,1.514564514,3.166689521,
2.363162043,-2.226431131,-1.898038745,1.255332947,3.183615471,
2.367904283,-2.315578222,-1.963970304,1.080387115,3.222781124,
2.372646522,-2.379971504,-1.993854403,0.9680767059,3.252213439,
2.377388814,-2.431672812,-1.992775559,0.8920583725,3.268020078,
2.382131053,-2.489931583,-1.985233903,0.8691444397,3.300958194,
2.386873293,-2.516503811,-1.909368157,0.8133020401,3.261891844,
2.391615533,-2.468788862,-1.806238055,0.7341756821,3.145858911,
2.396357772,-2.414371967,-1.73328054,0.6125879288,3.034586857,
2.401100012,-2.296793461,-1.632916093,0.4268445969,2.8502406,
2.405842251,-2.164711475,-1.485975504,0.2389707565,2.636513985,
2.410584491,-2.047277927,-1.349621296,0.03681087494,2.452382432,
2.41532673,-1.932616711,-1.230763078,-0.2036123276,2.30027022,
2.42006897,-1.768033028,-1.090621233,-0.4441480637,2.124302936,
2.42481121,-1.579823256,-0.9455447197,-0.6060762405,1.938356197,
2.429553449,-1.351588964,-0.7954392433,-0.6705532074,1.705625376,
2.434295741,-1.124510765,-0.67856884,-0.6952295303,1.486043146,
2.439037928,-0.9275627136,-0.5542516708,-0.6420316696,1.256889879,
2.44378022,-0.8180422783,-0.4966096878,-0.5708293915,1.11429823,
2.44852246,-0.6735873222,-0.4984076023,-0.4337539673,0.943542539,
2.453264699,-0.5009498596,-0.4784815311,-0.1662216187,0.7124078635,
2.458006939,-0.3068349361,-0.5065643787,0.1338319778,0.607178842,
2.462749178,-0.1503121853,-0.5352339745,0.5025339127,0.7494060941,
2.467491418,-0.07851243019,-0.6197178364,0.8348693848,1.04269904,
2.472233658,-0.02621507645,-0.7051229477,1.037920952,1.255055976,
2.476975897,0.02366828918,-0.7507245541,1.159777641,1.381749515,
2.481718137,0.07369756699,-0.7947766781,1.253185272,1.485790909,
2.486460428,0.1195416451,-0.8131635189,1.308670998,1.545362383,
2.491202668,0.1569834948,-0.8059406281,1.37661171,1.60288612,
2.495944908,0.1724841595,-0.73980546,1.4834795,1.666665632,
2.500687147,0.1882677078,-0.6458544731,1.483556747,1.62896082,
2.505429387,0.1713622808,-0.6242733002,1.400959969,1.543298746,
2.510171626,0.1866717339,-0.5814552307,1.219081879,1.363487128,
2.514913866,0.1696519852,-0.5959544182,0.9905557632,1.168393848,
2.519656105,0.1369620562,-0.6363732815,0.6603908539,0.9272786195,
2.524398345,0.1004737616,-0.6834669113,0.3601484299,0.7790564082,
2.529140637,0.09374034405,-0.7273550034,0.008432388306,0.7334191559,
2.533882876,0.05456328392,-0.7940182686,-0.3661060333,0.8760569562,
2.538625116,-0.03904795647,-0.8857121468,-0.7420721054,1.15614954,
2.543367355,-0.1663246155,-0.9878966808,-1.081474781,1.474174831,
2.548109595,-0.2490961552,-1.062343597,-1.363039494,1.745995268,
2.552851835,-0.3114852905,-1.104594231,-1.534234524,1.915992452,
2.557594074,-0.3560323715,-1.119665623,-1.717092991,2.080581288,
2.562336314,-0.3783648014,-1.174746513,-1.870966911,2.241362638,
2.567078605,-0.4725995064,-1.210381985,-2.034213543,2.413793608,
2.571820845,-0.5772573948,-1.274630785,-2.137620926,2.554864568,
2.576563085,-0.6475121975,-1.303341389,-2.174116611,2.61624805,
2.581305324,-0.7219946384,-1.301836491,-2.148509026,2.613837321,
2.586047564,-0.7816267014,-1.251453161,-2.027318954,2.507408514,
2.590789803,-0.7830586433,-1.157346487,-1.90849781,2.365374309,
2.595532043,-0.7379384041,-1.036423683,-1.846861839,2.242682722,
2.600274283,-0.6749277115,-0.9317147732,-1.856624126,2.18418703,
2.605016574,-0.6300189495,-0.8692688942,-1.904301167,2.186073013,
2.609758814,-0.5912292004,-0.8273310661,-1.927753925,2.179510004,
2.614501053,-0.4866364002,-0.7744486332,-1.931884766,2.137466823,
2.619243293,-0.4141936302,-0.7461903095,-1.931146622,2.111322717,
2.623985533,-0.3736958504,-0.7256815434,-1.94705677,2.111230058,
2.628727772,-0.343505621,-0.7151088715,-1.967692375,2.121600833,
2.633470012,-0.3662743568,-0.7116448879,-1.988350391,2.143392785,
2.638212303,-0.3650205135,-0.710006237,-2.030641556,2.18193812,
2.642954543,-0.3561644554,-0.6932079792,-2.039583206,2.183412484,
2.647696783,-0.3659808636,-0.6634545326,-2.048784256,2.184406289,
2.652439022,-0.387150526,-0.6517832279,-2.01522541,2.153100174,
2.657181262,-0.433899641,-0.6175076962,-1.991556168,2.129760696,
2.661923501,-0.4272751808,-0.5893115997,-1.968207359,2.098497665,
2.666665741,-0.3601055145,-0.5815515518,-1.909301758,2.028130023,
2.671408033,-0.3280701637,-0.5369002819,-1.872224808,1.975124724,
2.676150272,-0.3241279125,-0.4793179035,-1.835488796,1.924532067,
2.680892512,-0.3126964569,-0.4471209049,-1.823051929,1.9029489,
2.685634751,-0.3061068058,-0.4140307903,-1.832556725,1.90351964,
2.690376991,-0.3285710812,-0.4062876701,-1.797162056,1.87158224,
2.695119283,-0.3780915737,-0.3953428268,-1.743283272,1.827097631,
2.699861522,-0.4502453804,-0.3908400536,-1.716436863,1.817039448,
2.704603762,-0.5523216724,-0.3738372326,-1.604217529,1.737333413,
2.709346001,-0.6675498486,-0.3324458599,-1.4139328,1.598545906,
2.714088241,-0.695497036,-0.3362388611,-1.159953117,1.393651295,
2.71883048,-0.760674715,-0.3853785992,-0.8853197098,1.229200421,
2.723572772,-0.7935955524,-0.456101656,-0.5421438217,1.06383389,
2.728315012,-0.8444266319,-0.4840416908,-0.2164678574,0.997101313,
2.733057251,-0.9246149063,-0.5124382973,0.1301746368,1.065106178,
2.737799491,-0.9068472385,-0.5104074478,0.4645366669,1.139597294,
2.74254173,-0.8934354782,-0.5906643867,0.7630672455,1.315060072,
2.74728397,-0.9173753262,-0.6934709549,1.04275322,1.552357475,
2.752026262,-0.9765536785,-0.8142507076,1.246295929,1.780425467,
2.756768501,-0.9896688461,-0.9052801132,1.440794945,1.96846808,
2.761510741,-0.9922754765,-0.9402499199,1.657411575,2.148416548,
2.76625298,-0.9360818863,-0.9286146164,1.826851845,2.252989584,
2.77099522,-0.8255054951,-0.85111022,1.94444561,2.277436423,
2.77573746,-0.700807333,-0.8103554249,1.952934265,2.227500634,
2.780479751,-0.5998499393,-0.7413015366,1.914552689,2.138892217,
2.785221991,-0.5127952099,-0.6795220375,1.75521183,1.950763362,
2.78996423,-0.4278080463,-0.6101639271,1.52026844,1.693084721,
2.79470647,-0.3524007797,-0.5112111568,1.295557022,1.436659721,
2.799448762,-0.2294173241,-0.3897342682,1.09766674,1.187180433,
2.804191001,-0.1043541431,-0.3078410625,0.9743232727,1.027113308,
2.808933241,-0.03429150581,-0.2560267448,0.9135971069,0.9494131215,
2.81367548,-0.05730390549,-0.2607214451,0.8677120209,0.9078455599,
2.818417772,-0.1642661095,-0.1832122803,0.8030319214,0.8398871121,
2.823160012,-0.2914032936,-0.1047320366,0.6284389496,0.7005856067,
2.827902251,-0.5798156261,-0.1694722176,-0.632540226,0.874650862,
2.832644491,-1.107876062,-0.1218953133,-2.669720173,2.893035368,
2.83738673,-1.486369848,0.05953025818,-3.394019604,3.705699428,
2.84212897,-1.58981204,0.09859848022,-2.883920193,3.294574276,
2.846871262,-1.622399807,-0.009807109833,-2.639964581,3.098659436,
2.851613501,-1.632059813,-0.1941084862,-2.391403675,2.901742386,
2.856355741,-1.514777184,-0.3600215912,-1.384192944,2.083304003,
2.86109798,-1.32100296,-0.5453345776,0.1144332886,1.433713221,
2.86584022,-1.241941452,-0.7112429142,1.696673393,2.219681431,
2.870582512,-1.214765787,-0.8593211174,3.304253578,3.623835042,
2.875324751,-1.116300106,-0.9045772552,4.718740463,4.932635958,
2.880066991,-0.8232192993,-0.8643245697,5.877158165,5.99714391,
2.884809283,-0.4281392097,-0.6883590221,6.579910278,6.629657653,
2.889551522,-0.1034305096,-0.5359342098,6.562454224,6.585114182,
2.894293762,0.1540102959,-0.4813637733,5.770106316,5.792197955,
2.899036001,0.3429852724,-0.5529615879,4.381807327,4.429857884,
2.903778241,0.5349638462,-0.8600504398,2.65221405,2.839033717,
2.908520533,0.7962599993,-1.304539442,0.9266500473,1.787325782,
2.913262772,0.9018414021,-1.452097654,-0.6170663834,1.817326727,
2.918005012,0.7563753128,-1.546416759,-1.901295662,2.564845727,
2.922747251,0.5731165409,-1.468052387,-2.850617886,3.25724772,
2.927489543,0.5865180492,-1.177119493,-3.410996914,3.655750767,
2.932231783,-0.1041624546,-1.186645508,-3.429996967,3.630958079,
2.936974022,-0.8751068115,-1.296936035,-3.216379642,3.576723782,
2.941716262,-1.368879557,-1.342336178,-2.836894035,3.423983853,
2.946458553,-1.555500746,-1.334262848,-2.195517063,3.003353974,
2.951200793,-1.510936499,-1.221497059,-1.580953598,2.504874936,
2.955943033,-1.26013732,-1.079353571,-1.013659477,1.944339407,
2.960685272,-0.8497974873,-0.9328074455,-0.3540239334,1.310579431,
2.965427564,-0.3335518837,-0.7277400494,0.372344017,0.882894391,
2.970169803,0.1855123043,-0.5175118446,1.094530106,1.224838551,
2.974912043,0.599364996,-0.2787401676,1.710458755,1.83374034,
2.979654283,0.8760143518,-0.1506047249,2.199280739,2.372112707,
2.984396574,0.9209384918,-0.09009385109,2.561437607,2.723455015,
2.989138814,0.7776670456,-0.1208474636,2.653624535,2.767868009,
2.993881053,0.622628808,-0.2254917622,2.509291649,2.59519898,
2.998623293,0.5119080544,-0.3577682972,2.161626816,2.250039667,
3.003365585,0.4009952545,-0.5262989998,1.789493561,1.907898067,
3.008107824,0.312638998,-0.6676814556,1.277418137,1.474902968,
3.012850064,0.2412993908,-0.7997634411,0.7802743912,1.143098895,
3.017592355,0.1435246468,-0.8974947929,0.4265432358,1.004009641,
3.022334595,0.09568333626,-0.9385564327,0.3590335846,1.009429836,
3.027076835,0.005204796791,-0.9440376759,0.5246725082,1.080053454,
3.031819074,-0.2029540539,-0.9638943672,0.7966022491,1.26682984,
3.036561366,-0.5124942064,-1.0052073,1.053105354,1.543412749,
3.041303605,-0.5939254761,-1.029347658,1.220334053,1.703384652,
3.046045845,-0.5892637968,-1.057265043,1.1335783,1.658324744,
3.050788085,-0.6486850977,-1.112315416,0.9365100861,1.592196308,
3.055530376,-0.47181499,-1.149373531,0.9853954315,1.585772069,
3.060272616,-0.2008333206,-1.145282984,1.079203606,1.586407122,
3.065014855,0.03249001503,-1.15830636,1.19427681,1.664039159,
3.069757147,0.1592589617,-1.172489643,1.307087898,1.763114901,
3.074499387,0.1488022804,-1.200458527,1.346251488,1.80987178,
3.079241626,-0.05843985081,-1.24765563,1.302595139,1.804664479,
3.083983866,-0.4171171188,-1.314780474,1.195588112,1.825394565,
3.088726158,-0.7726209164,-1.380800962,0.9918689728,1.867447037,
3.093468397,-1.088022828,-1.398370266,0.7034645081,1.906330346,
3.098210637,-1.326113343,-1.427496672,0.4188127518,1.992919333,
3.102952928,-1.483257413,-1.444298267,0.05882549286,2.071113342,
3.107695168,-1.624986291,-1.455753088,-0.3168916702,2.204590173,
3.112437408,-1.66379559,-1.442398071,-0.6919155121,2.30813237,
3.117179647,-1.655492902,-1.399322748,-0.9660634995,2.373191856,
3.121921939,-1.57193327,-1.29050374,-1.177920341,2.350291565,
3.126664178,-1.389552951,-1.137540817,-1.322857857,2.230428081,
3.131406418,-1.184909344,-0.9855456352,-1.520622253,2.165087155,
3.13614871,-0.9485155344,-0.8293356895,-1.670889854,2.092690209,
3.140890949,-0.7044079304,-0.6710598469,-1.79773283,2.044102536,
3.145633189,-0.5267474651,-0.5512883663,-1.841440201,1.993058897,
3.15037548,-0.4391915798,-0.4698543549,-1.809293747,1.920207338,
3.15511772,-0.438986659,-0.4124586582,-1.775399208,1.874799664,
3.15985996,-0.5114080906,-0.3980960846,-1.722979546,1.840836017,
3.164602199,-0.617389679,-0.4121954441,-1.620886803,1.782792508,
3.169344491,-0.7384688854,-0.4853098392,-1.363872051,1.625118121,
3.17408673,-0.7539144754,-0.4929509163,-1.035654068,1.37257677,
3.17882897,-0.6393672228,-0.547526598,-0.8035860062,1.163755254,
3.183571262,-0.5617668629,-0.6247298717,-0.6986351013,1.092684962,
3.188313501,-0.5254182816,-0.7218139172,-0.6513500214,1.105140965,
3.193055741,-0.5560638905,-0.8480103016,-0.5732450485,1.164876992,
3.197798033,-0.5817840099,-0.9672706127,-0.4811525345,1.227026012,
3.202540272,-0.5881193876,-1.043786764,-0.4157104492,1.268144472,
3.207282512,-0.5894856453,-1.111074448,-0.4127578735,1.323763127,
3.212024803,-0.6386003494,-1.14532423,-0.3478860855,1.356688147,
3.216767043,-0.726174593,-1.180366993,-0.2450323105,1.40735092,
3.221509283,-0.8166236877,-1.20706296,-0.1208772659,1.462356506,
3.226251574,-0.8693189621,-1.2042799,-0.02313423157,1.48544294,
3.230993814,-0.9032857418,-1.201105595,0.05077934265,1.503714841,
3.235736053,-0.9253706932,-1.22624445,0.1033353806,1.539696259,
3.240478345,-0.8564618826,-1.234251022,0.1465568542,1.509430838,
3.245220585,-0.6917791367,-1.172419548,0.14935112,1.369464029,
3.249962824,-0.4338288307,-1.100545883,0.1284866333,1.189923321,
3.254705116,-0.2044855356,-1.037538528,0.08395195007,1.060824426,
3.259447355,-0.006211280823,-0.9806783199,-0.03931808472,0.9814858425,
3.264189595,0.1342195272,-0.9154551029,-0.1839447021,0.9433496597,
3.268931887,0.1850303411,-0.8752567768,-0.3069944382,0.9458098316,
3.273674126,0.100378871,-0.905520916,-0.3798542023,0.9870832093,
3.278416366,-0.0411542654,-0.9990116358,-0.4122037888,1.081494284,
3.283158658,-0.1706607342,-1.112864375,-0.4447174072,1.210522935,
3.287900897,-0.2934494019,-1.209291935,-0.5107698441,1.34513396,
3.292643137,-0.4482449293,-1.410401821,-0.6103258133,1.600829289,
3.297385428,-0.6020503044,-1.594149232,-0.6979780197,1.841453138,
3.302127668,-0.7244728804,-1.760654807,-0.7427368164,2.043630173,
3.306869908,-0.8975719213,-1.878871918,-0.7615022659,2.217133451,
3.311612199,-1.014315367,-1.970543861,-0.7304468155,2.333544798,
3.316354439,-1.175328851,-1.954648852,-0.6591567993,2.374139366,
3.32109673,-1.253459573,-1.877017736,-0.5164756775,2.315405712,
3.32583897,-1.30300796,-1.78335619,-0.3358011246,2.234043742,
3.33058121,-1.325562835,-1.721571565,-0.1792011261,2.180146446,
3.335323501,-1.327234387,-1.61975503,-0.005885124207,2.094085029,
3.340065741,-1.318812013,-1.535119295,0.2153024673,2.035242376,
3.34480798,-1.256539583,-1.381524563,0.4532957077,1.921712476,
3.349550272,-1.027806044,-1.233053803,0.6028871536,1.714724428,
3.354292512,-0.7330777645,-1.135098457,0.6833353043,1.514199014,
3.359034751,-0.4132425785,-1.006170869,0.7090244293,1.298408598,
3.363777043,-0.149962306,-0.9320809841,0.6416568756,1.141484647,
3.368519283,0.04186725616,-0.9196557999,0.5051231384,1.050080493,
3.373261522,0.1466673613,-0.9609488249,0.3183116913,1.022866703,
3.378003814,0.3183649778,-1.135440946,-0.3523254395,1.230737834,
3.382746053,0.3261732459,-1.185932398,-0.7318887711,1.431253231,
3.387488293,0.2579192519,-1.167282939,-0.8229646683,1.451324445,
3.392230585,0.1078993082,-1.11297965,-0.6663532257,1.301688359,
3.396972824,-0.02727127075,-1.054213881,-0.4199743271,1.135116322,
3.401715116,-0.04248893261,-0.9219329357,-0.1770381927,0.9397383514,
3.406457355,-0.0002778768539,-0.8098709583,-0.03778934479,0.8107521699,
3.411199595,-0.01013720036,-0.7470245361,0.100944519,0.7538820971,
3.415941887,-0.1428175569,-0.7432155609,0.2824478149,0.8078013324,
3.420684126,-0.7096190453,-0.8970875144,0.621796608,1.301904843,
3.425426418,-1.716526151,-1.158963919,1.183779716,2.385580392,
3.430168658,-2.345817327,-1.134687185,1.188956261,2.864260975,
3.434910897,-2.469682693,-0.9113013744,1.030187607,2.826851483,
3.439653189,-2.717717648,-0.7389822006,1.221650124,3.069936958,
3.444395428,-3.106894255,-0.8127180338,1.451969147,3.524417245,
3.449137668,-3.323153019,-1.025314927,1.539287567,3.803159595,
3.45387996,-3.236627102,-1.278985143,1.624745369,3.840749342,
3.458622199,-2.872594833,-1.564807534,1.866090775,3.765995018,
3.463364491,-2.27444315,-1.828577518,2.246425629,3.682827105,
3.46810673,-1.462827444,-2.068608999,2.756112099,3.743682842,
3.47284897,-0.6201108098,-2.252162218,3.234951019,3.990198011,
3.477591262,-0.2123456001,-2.387074232,3.740522385,4.442377939,
3.482333501,-0.0909139514,-2.507254124,4.172452927,4.868670456,
3.487075741,-0.05624103546,-2.67529273,4.652739525,5.367340061,
3.491818033,0.05623376369,-2.757876396,5.066477776,5.768729626,
3.496560272,0.1885238886,-2.767230988,5.241520882,5.930147532,
3.501302564,0.1829185188,-2.703299999,5.120756149,5.793395689,
3.506044803,0.02086740732,-2.59907341,4.747567177,5.412486687,
3.510787043,-0.2920565009,-2.578125,4.177239418,4.917454084,
3.515529335,-0.6047459245,-2.581832886,3.565371513,4.44336052,
3.520271574,-0.7703269124,-2.499191999,2.842545509,3.862567692,
3.525013866,-0.8944651484,-2.370177031,1.975252151,3.21238667,
3.529756105,-1.01530695,-2.2966187,1.071090698,2.729934237,
3.534498397,-1.0623734,-2.289248466,0.249502182,2.536049511,
3.539240637,-1.329900265,-2.375604868,-0.1980323792,2.729716107,
3.543982876,-1.905304432,-2.55468154,-0.3963785172,3.211494773,
3.548725168,-2.435649395,-2.679945707,-0.4845438004,3.653666605,
3.553467408,-2.741110086,-2.732012749,-0.5894069672,3.914713111,
3.558209647,-2.780949831,-2.679332733,-0.7970638275,3.943071975,
3.562951939,-2.651099682,-2.583898544,-0.9807024002,3.829704742,
3.567694178,-2.459115744,-2.438470364,-0.9849624634,3.600491495,
3.57243647,-2.360037565,-2.326966524,-0.8459215164,3.420545823,
3.57717871,-2.362948418,-2.256555796,-0.6904802322,3.339510778,
3.581921001,-2.369522333,-2.179581881,-0.6238384247,3.279388303,
3.586663241,-2.396643877,-2.110477448,-0.6076335907,3.250728458,
3.59140548,-2.456159115,-2.030096531,-0.5437726974,3.232599305,
3.596147772,-2.516345024,-1.952757359,-0.4227428436,3.213092761,
3.600890012,-2.442585707,-1.863874555,-0.3354768753,3.090760105,
3.605632303,-2.203527451,-1.767986774,-0.3273687363,2.844025448,
3.610374543,-2.033296108,-1.664714336,-0.407907486,2.659314837,
3.615116835,-1.900804281,-1.549073219,-0.493314743,2.501208546,
3.619859074,-1.734717727,-1.404265404,-0.5190534592,2.291423882,
3.624601314,-1.463971853,-1.216179967,-0.4923667908,1.965892254,
3.629343605,-1.207116246,-1.085761905,-0.4683113098,1.689770407,
3.634085845,-1.159632683,-1.044804692,-0.408624649,1.613486569,
3.638828137,-1.274714708,-1.098763824,-0.3420219421,1.717311427,
3.643570376,-1.397431612,-1.21226418,-0.3641214371,1.885466514,
3.648312616,-1.468346596,-1.32366693,-0.3910827637,2.015212543,
3.653054908,-1.489990234,-1.443100095,-0.3415555954,2.102205748,
3.657797147,-1.416939259,-1.513763428,-0.3183908463,2.097753396,
3.662539439,-1.327818632,-1.641456604,-0.2664842606,2.128026307,
3.667281678,-1.379690647,-1.764396667,-0.1284065247,2.243463866,
3.67202397,-1.558824062,-1.882954359,0.06715679169,2.445395594,
3.67676621,-1.71496129,-1.997205615,0.2389345169,2.643295708,
3.681508449,-1.760814667,-2.028261662,0.3678865433,2.71102456,
3.686250741,-1.820393801,-2.031385422,0.3967189789,2.756400963,
3.69099298,-1.865039349,-2.047367573,0.3638343811,2.793288601,
3.695735272,-1.933241129,-2.018769026,0.3242998123,2.813897655,
3.700477512,-1.948796272,-2.014852524,0.2231140137,2.811977501,
3.705219803,-1.897825003,-1.908486128,0.06270980835,2.69220942,
3.709962043,-1.811730862,-1.8021698,-0.0875415802,2.556921632,
3.714704335,-1.700292349,-1.702471972,-0.2133617401,2.415559587,
3.719446574,-1.625905037,-1.616010308,-0.2550640106,2.306537265,
3.724188814,-1.624830604,-1.521051049,-0.2390909195,2.238489502,
3.728931105,-1.585052967,-1.348170161,-0.1918449402,2.089679443,
3.733673345,-1.499389172,-1.149742126,-0.2759790421,1.909512838,
3.738415637,-1.454107046,-0.9663436413,-0.2450675964,1.763038701,
3.743157876,-1.42768693,-0.8312993646,-0.2594680786,1.672325413,
3.747900168,-1.441454053,-0.7466158867,-0.359796524,1.662732272,
3.752642408,-1.485842466,-0.726377666,-0.4598960876,1.716641127,
3.757384699,-1.532399297,-0.7058633566,-0.5717477798,1.781400069,
3.762126939,-1.626582623,-0.744641602,-0.6116857529,1.890614081,
3.766869178,-1.68955338,-0.8210312128,-0.6109085083,1.975320754,
3.77161147,-1.707262278,-0.8846800923,-0.6794939041,2.039390918,
3.77635371,-1.663169503,-0.930569768,-0.8413171768,2.08324446,
3.781096001,-1.593374968,-1.011137724,-1.03175354,2.150757692,
3.785838241,-1.536226273,-1.080630422,-1.214956284,2.236933624,
3.790580533,-1.449145317,-1.124604344,-1.367093086,2.287728259,
3.795322772,-1.392588854,-1.131270647,-1.454771996,2.309856825,
3.800065064,-1.398071527,-1.134179592,-1.504422188,2.346114546,
3.804807303,-1.42978096,-1.135766983,-1.499370575,2.362700225,
3.809549595,-1.459215403,-1.126542449,-1.473178864,2.359801569,
3.814291835,-1.438625336,-1.087479711,-1.430656433,2.301962816,
3.819034074,-1.420300007,-1.045022964,-1.340698242,2.215129089,
3.823776366,-1.377237916,-1.037341833,-1.22006321,2.112206569,
3.828518605,-1.328155279,-0.9424885511,-1.025712013,1.924673024,
3.833260897,-1.258039951,-0.8634730577,-0.8772277832,1.760050802,
3.838003137,-1.166047096,-0.7858509421,-0.8031921387,1.619365661,
3.842745428,-1.056355,-0.7525690794,-0.8130455017,1.53078055,
3.847487668,-0.9767024517,-0.6942911744,-0.8253707886,1.455068676,
3.85222996,-0.917812407,-0.6807626486,-0.7827444077,1.385101515,
3.856972199,-0.9255024195,-0.6835313439,-0.7497739792,1.373291974,
3.861714491,-0.9952426553,-0.7051529288,-0.6977519989,1.405206906,
3.86645673,-1.057885408,-0.7936324477,-0.6266880035,1.463458866,
3.871199022,-1.027673841,-0.8607248664,-0.5796165466,1.46045067,
3.875941262,-0.9196698666,-0.9402270913,-0.487156868,1.402548203,
3.880683553,-0.8278063536,-0.9751147628,-0.2823925018,1.30990751,
3.885425793,-0.7663353086,-1.051820755,-0.1016979218,1.305350211,
3.890168085,-0.7751930952,-1.084363461,0.02635002136,1.333215201,
3.894910324,-0.8704457283,-1.089510918,0.0946893692,1.397739562,
3.899652564,-1.044293046,-1.122230172,0.1034250259,1.53643915,
3.904394855,-1.176725388,-1.191933155,0.06698894501,1.676268118,
3.909137095,-1.339603901,-1.233916759,0.006936073303,1.821300988,
3.913879387,-1.423225641,-1.276909232,-0.03607368469,1.91242509,
3.918621626,-1.461934566,-1.342478275,-0.1266641617,1.988855049,
3.923363918,-1.463766098,-1.378016233,-0.2313451767,2.023625588,
3.928106158,-1.438613176,-1.376191378,-0.3094997406,2.014770624,
3.932848449,-1.393170238,-1.410871029,-0.3037862778,2.005932819,
3.937590689,-1.243180513,-1.352490783,-0.2621593475,1.85565531,
3.94233298,-1.005046844,-1.231912374,-0.1727390289,1.599239204,
3.94707522,-0.8318257928,-1.075283289,-0.1169252396,1.364492511,
3.951817512,-0.7256826758,-0.927775979,-0.1090717316,1.18291177,
3.956559751,-0.7341399789,-0.7843015194,-0.1443862915,1.083945471,
3.961302043,-0.7683114409,-0.6589645147,-0.1965494156,1.031100565,
3.966044283,-0.7703332901,-0.5441185236,-0.2680015564,0.9804606977,
3.970786574,-0.757285893,-0.4586712122,-0.3085775375,0.937593356,
3.975528814,-0.7345229387,-0.3931776285,-0.2872438431,0.8812613803,
3.980271105,-0.7979387045,-0.3762897253,-0.2638778687,0.9208320493,
3.985013345,-0.8877699971,-0.3790762424,-0.2433137894,0.9955078932,
3.989755637,-0.9493152499,-0.3729958534,-0.2111873627,1.041597548,
3.994497876,-1.064485908,-0.4060820341,-0.1507692337,1.149245069,
3.999240168,-1.138023615,-0.3876520395,-0.09554576874,1.206026884,
4.003982408,-1.222789049,-0.4303135872,-0.02635288239,1.296563657,
4.008724699,-1.189568043,-0.4313175678,0.06639385223,1.26708923,
4.013466939,-1.069529891,-0.4338496923,0.1372671127,1.162308911,
4.01820923,-0.8913981915,-0.4427256584,0.1456642151,1.005890058,
4.02295147,-0.6266225576,-0.4603607655,0.1323261261,0.7887319366,
4.027693762,-0.2920460105,-0.50111413,0.2072868347,0.6159334992,
4.032436001,0.1789607555,-0.5770142078,0.3656768799,0.7061812292,
4.037178293,0.6280425787,-0.6739472151,0.6098461151,1.104787135,
4.041920533,0.966496706,-0.770686388,0.848897934,1.499566969,
4.046662824,1.177955627,-0.8937963247,1.094882965,1.839896746,
4.051405064,1.299237728,-0.9284909964,1.292847633,2.054645762,
4.056147355,1.326936245,-0.9083588123,1.385514259,2.122622268,
4.060889595,1.198117256,-0.9337941408,1.449542999,2.099674109,
4.065631887,1.005414486,-1.011592031,1.331889153,1.951436763,
4.070374126,0.8363096118,-1.079135299,1.123558044,1.768142935,
4.075116418,0.610517025,-1.152785897,0.8604297638,1.562685426,
4.079858658,0.4625837207,-1.22995019,0.5712032318,1.432841338,
4.084600949,0.3352147043,-1.291242361,0.284532547,1.36405077,
4.089343189,0.2304559201,-1.33671093,-0.03067970276,1.356778274,
4.09408548,0.1216041669,-1.363958359,-0.3002815247,1.401905479,
4.09882772,-0.02754555643,-1.373122692,-0.512345314,1.465852109,
4.103570012,-0.183771193,-1.361871004,-0.7290906906,1.555647042,
4.108312303,-0.3546302617,-1.287310123,-0.8811273575,1.599786047,
4.113054543,-0.4784983099,-1.207191944,-0.9995422363,1.638706107,
4.117796835,-0.5534412265,-1.07134223,-1.074789047,1.615315096,
4.122539074,-0.5632786155,-0.9207031727,-1.14990139,1.577101879,
4.127281366,-0.5590773821,-0.7291520834,-1.236794472,1.540743601,
4.132023605,-0.5465488434,-0.5542508364,-1.340220451,1.549871119,
4.136765897,-0.4740743041,-0.3867219687,-1.426646233,1.552295011,
4.141508137,-0.4072368443,-0.2243212461,-1.496099472,1.566676578,
4.146250428,-0.2893597186,-0.07916736603,-1.519910812,1.549233809,
4.150992668,-0.2118126452,0.07240045071,-1.507692337,1.524218687,
4.15573496,-0.07463297248,0.2303651571,-1.533654213,1.552653674,
4.160477199,0.05706223845,0.3275945187,-1.564285278,1.599238162,
4.165219491,0.1804983318,0.4142408371,-1.539821625,1.604750995,
4.16996173,0.3144668043,0.4685499668,-1.484240532,1.58789118,
4.174704022,0.4251304269,0.4905407429,-1.426310539,1.567076212,
4.179446262,0.5193684101,0.4753011465,-1.351691246,1.524048539,
4.184188553,0.5372208357,0.4539241791,-1.219769478,1.408009576,
4.188930845,0.5479589701,0.3880559206,-1.028225899,1.228045166,
4.193673085,0.4704716802,0.2824745178,-0.7747154236,0.9493784507,
4.198415324,0.408157289,0.1276227236,-0.454501152,0.624060277,
4.203157616,0.3618172407,0.002561569214,-0.1082725525,0.3776787298,
4.207899908,0.4543947279,-0.1521681547,0.1443853378,0.5004766147,
4.212642147,0.5480241776,-0.247736454,0.332280159,0.6871054896,
4.217384439,0.5646273494,-0.4153398275,0.4937286377,0.8573675896,
4.222126678,0.50950104,-0.5637631416,0.6167850494,0.9786950428,
4.22686897,0.4285050333,-0.7286643982,0.7110319138,1.104597099,
4.23161121,0.2861596942,-0.9072861075,0.6999425888,1.181090631,
4.236353501,0.1522260904,-1.089749813,0.6792507172,1.293100528,
4.241095741,0.0747641623,-1.268518209,0.6010866165,1.405714497,
4.245838033,0.03956189752,-1.409750581,0.4726352692,1.487395691,
4.250580324,0.01806014776,-1.50358057,0.3154191971,1.536414648,
4.255322564,0.01996988058,-1.573652983,0.1198596954,1.57833737,
4.260064855,-0.000247657299,-1.557641864,-0.0733795166,1.559369357,
4.264807095,0.002759367228,-1.539210439,-0.2069406509,1.553061757,
4.269549387,-0.07872772217,-1.489755988,-0.3215255737,1.526089661,
4.274291626,-0.1249449253,-1.414102435,-0.3621530533,1.465077392,
4.279033918,-0.1525662839,-1.302940726,-0.3647298813,1.361601591,
4.283776158,-0.09451296926,-1.130203962,-0.3340396881,1.182318151,
4.288518449,0.008330404758,-0.9537413716,-0.2628822327,0.9893427454,
4.293260741,0.1534145772,-0.7235344648,-0.1751804352,0.7600831133,
4.29800298,0.285618186,-0.5094595551,-0.06609153748,0.5877881232,
4.302745272,0.4573922157,-0.2400621176,0.04288291931,0.5183400468,
4.307487512,0.6016859412,-0.0375739336,0.1326532364,0.6172800446,
4.312229803,0.7186620235,0.1720798016,0.1889228821,0.7627440053,
4.316972043,0.8370671272,0.3338121176,0.2141447067,0.9262666251,
4.321714335,0.9349722862,0.4834976196,0.1700983047,1.066244136,
4.326456574,1.02854991,0.5684125423,0.09991073608,1.179402344,
4.331198866,1.054831862,0.6075234413,0.05622577667,1.218571429,
4.335941105,1.051266432,0.6293612719,0.0079164505,1.225283392,
4.340683397,0.9955326915,0.5763491392,-0.0928478241,1.154072956,
4.345425689,0.9110519886,0.5440064669,-0.2244853973,1.084597831,
4.350167928,0.8283092976,0.4891083241,-0.3558931351,1.025662307,
4.35491022,0.6681265235,0.4210351706,-0.4535894394,0.9107178739,
4.35965246,0.4976478517,0.349293232,-0.4889183044,0.7801924472,
4.364394751,0.3362033963,0.2664445639,-0.4930124283,0.6535186943,
4.369136991,0.239137888,0.2203067541,-0.4635047913,0.5661790237,
4.373879283,0.1781196743,0.1484766006,-0.4386587143,0.4961787853,
4.378621522,0.1226688474,0.07029032707,-0.3754262924,0.4011649003,
4.383363814,0.07354173064,0.03602933884,-0.2810115814,0.292701227,
4.388106105,0.1509059221,0.02885127068,-0.1410808563,0.2085876342,
4.392848345,0.2332302481,0.0870629549,-0.02503108978,0.2502056398,
4.397590637,0.266202271,0.1414327621,0.03369045258,0.3033181859,
4.402332876,0.2170813233,0.2160589695,0.07101249695,0.3144018987,
4.407075168,0.1582340747,0.2681667805,0.0845489502,0.3226452689,
4.41181746,0.1068344861,0.2884796858,0.1149530411,0.3284027073,
4.416559699,0.1297711134,0.3226218224,0.1024055481,0.362508315,
4.421301991,0.1526146084,0.3756269217,0.04691886902,0.408152157,
4.42604423,0.2275016308,0.4047363997,-0.006065368652,0.4643332143,
4.430786522,0.3131584227,0.4315536022,-0.008748054504,0.533275949,
4.435528762,0.387748152,0.4706823826,-0.07360744476,0.6142544999,
4.440271053,0.4484758079,0.4672558308,-0.1216869354,0.6589888253,
4.445013345,0.5404968262,0.4907906055,-0.1482419968,0.7449751185,
4.449755585,0.6132850647,0.4982788563,-0.1485338211,0.8040290326,
4.454497876,0.6496664286,0.5088200569,-0.1393384933,0.836886811,
4.459240116,0.632610321,0.4815971255,-0.08718395233,0.7998328895,
4.463982408,0.523619473,0.4092022777,-0.02557849884,0.6650399357,
4.468724699,0.3896238208,0.3177409172,0.04309463501,0.5046019815,
4.473466939,0.2712088823,0.2070362568,0.1427564621,0.3698616998,
4.47820923,0.2378804386,0.112729013,0.247095108,0.3610414461,
4.48295147,0.2494421601,-0.01327222586,0.3441896439,0.4252811472,
4.487693762,0.2993912697,-0.1112897396,0.4842967987,0.5801412998,
4.492436001,0.371733129,-0.2460035682,0.6004400253,0.7478178246,
4.497178293,0.4242751598,-0.3457241654,0.7668056488,0.9420857248,
4.501920585,0.4435741305,-0.4488258064,0.8303289413,1.042904005,
4.506662824,0.4469171166,-0.5241294503,0.8652715683,1.105957267,
4.511405116,0.3412222564,-0.6362873316,0.897986412,1.152247279,
4.516147355,0.2102349401,-0.7589843869,0.8711013794,1.174339662,
4.520889647,0.1107838154,-0.8609797359,0.8109722137,1.187954162,
4.525631939,0.06593886018,-0.9710391164,0.708065033,1.203586719,
4.530374178,0.06030249596,-1.079483271,0.67000103,1.271936281,
4.53511647,-0.002741456032,-1.207947969,0.675160408,1.383830694,
4.53985871,-0.08085888624,-1.339748502,0.7736816406,1.549208665,
4.544601001,-0.1866032779,-1.460751772,0.8913164139,1.721354546,
4.549343293,-0.2463156879,-1.594952822,1.035194397,1.917334963,
4.554085533,-0.317926079,-1.699396372,1.176575661,2.091256872,
4.558827824,-0.3679807782,-1.76479578,1.336999893,2.244433718,
4.563570064,-0.3864236772,-1.783960342,1.502113342,2.36393364,
4.568312355,-0.4176805317,-1.809494734,1.628913879,2.470240605,
4.573054595,-0.453039825,-1.788568258,1.772499084,2.558510211,
4.577796887,-0.5389702916,-1.744943142,1.880295753,2.621226366,
4.582539178,-0.6554136276,-1.690265894,1.942799568,2.657260992,
4.587281418,-0.727750361,-1.624156237,1.914634705,2.614063909,
4.59202371,-0.7942280769,-1.543677568,1.740876198,2.458533833,
4.596766001,-0.8528797626,-1.474636197,1.579457283,2.323067178,
4.601508241,-0.921471715,-1.392582774,1.396784782,2.177017371,
4.606250533,-0.9916125536,-1.306793332,1.199957848,2.032462326,
4.610992772,-1.078598022,-1.2289114,1.043891907,1.939924544,
4.615735064,-1.168724775,-1.160995483,0.902141571,1.878213919,
4.620477355,-1.293316841,-1.105379105,0.8248662949,1.890750068,
4.625219595,-1.442981005,-1.081099868,0.826294899,1.983364405,
4.629961887,-1.508023262,-1.004365444,0.8680238724,2.009066835,
4.634704178,-1.517317772,-0.9278324246,0.8925962448,1.989938262,
4.639446418,-1.537883639,-0.8490411043,0.9215335846,1.983729072,
4.64418871,-1.557556152,-0.830152154,1.019393921,2.038209443,
4.648930949,-1.612241268,-0.7922513485,1.05935955,2.085479984,
4.653673241,-1.670869946,-0.8143218756,1.082152367,2.150809206,
4.658415533,-1.793347478,-0.9035805464,1.106925011,2.292997156,
4.663157772,-1.92485857,-0.9883694053,1.11932373,2.436152748,
4.667900064,-2.032057047,-1.123926163,1.121772766,2.578922255,
4.672642303,-2.148655176,-1.238782525,1.150177002,2.733899842,
4.677384595,-2.255663633,-1.359537601,1.180613518,2.886210179,
4.682126887,-2.384108543,-1.46519208,1.20836544,3.048099148,
4.686869126,-2.516871214,-1.596687078,1.233501434,3.225767525,
4.691611418,-2.572444201,-1.665976405,1.268054008,3.316761601,
4.69635371,-2.571996689,-1.735497713,1.276202202,3.354968158,
4.701095949,-2.479593754,-1.755452871,1.250863075,3.285522546,
4.705838241,-2.361744881,-1.723572016,1.153876305,3.143241941,
4.71058048,-2.213292122,-1.632763147,1.076221466,2.953443779,
4.715322772,-2.038953304,-1.530963659,1.041797638,2.754364286,
4.720065064,-1.867292285,-1.377520919,1.07925415,2.559127562,
4.724807303,-1.688748956,-1.225199103,1.143074036,2.378992251,
4.729549595,-1.498463273,-1.071630478,1.161497116,2.177810738,
4.734291887,-1.370338678,-0.942935884,1.141753197,2.017562028,
4.739034126,-1.234810114,-0.8676316142,1.076709747,1.853872842,
4.743776418,-1.04871273,-0.8359779119,0.9592475891,1.648882469,
4.74851871,-0.9077211618,-0.7951380014,0.8324537277,1.466008649,
4.753260949,-0.7565872669,-0.795221746,0.6604766846,1.281027466,
4.758003241,-0.6236886978,-0.838265121,0.3979377747,1.118047619,
4.762745533,-0.5063641667,-0.8569604754,0.08558273315,0.9990547182,
4.767487772,-0.4116026759,-0.9155111909,-0.2358980179,1.031128207,
4.772230064,-0.334604919,-0.9368655086,-0.6167554855,1.170497656,
4.776972303,-0.33737427,-0.9735426307,-0.9206180573,1.381717865,
4.781714595,-0.450838387,-1.016028881,-1.087788582,1.555266516,
4.786456887,-0.591113627,-1.066781878,-1.261890411,1.754937693,
4.791199126,-0.674130559,-1.073178172,-1.473967552,1.943899109,
4.795941418,-0.7116231918,-1.052115679,-1.664154053,2.093505118,
4.80068371,-0.715431273,-1.027600765,-1.818100452,2.207553962,
4.805425949,-0.6974357963,-0.9973627329,-1.962123394,2.308912585,
4.810168241,-0.6817341447,-0.9351853728,-2.08427,2.384012282,
4.814910533,-0.6542977691,-0.8819357157,-2.189345837,2.449316511,
4.819652772,-0.6276429296,-0.837716341,-2.322822571,2.547785119,
4.824395064,-0.628680706,-0.8026871681,-2.499039173,2.699026289,
4.829137355,-0.712769866,-0.8055428267,-2.636669159,2.84762434,
4.833879595,-0.8775983453,-0.7890173793,-2.697498798,2.944355116,
4.838621887,-0.9536947608,-0.7293221951,-2.753386021,3.003760833,
4.843364178,-1.032620788,-0.6602400541,-2.782851219,3.040803106,
4.848106418,-1.057382703,-0.5986056328,-2.824222565,3.07451134,
4.85284871,-1.052377462,-0.5110066533,-2.810581207,3.044337834,
4.857591001,-1.051588535,-0.4407731593,-2.789856911,3.013871432,
4.862333241,-0.9864493608,-0.3427827954,-2.716702461,2.910507627,
4.867075533,-0.8841549158,-0.2271558642,-2.581690788,2.738331066,
4.871817824,-0.7953243256,-0.1205483973,-2.451890945,2.580473194,
4.876560064,-0.7462979555,-0.05191871524,-2.296220779,2.415012642,
4.881302355,-0.6890114546,0.05020257831,-2.143382072,2.25196443,
4.886044647,-0.6826119423,0.1641663015,-1.964614868,2.086293656,
4.890786887,-0.6257112026,0.256426841,-1.743121147,1.869689966,
4.895529178,-0.5676571131,0.3653241098,-1.552989006,1.693360905,
4.90027147,-0.5315210819,0.469299674,-1.353442192,1.527927555,
4.90501371,-0.6075587273,0.5255538821,-1.082278252,1.347835563,
4.909756001,-0.6948248744,0.5629710555,-0.8447618484,1.230179091,
4.914498293,-0.7667625546,0.6270793676,-0.6288738251,1.17330117,
4.919240533,-0.8208470345,0.6680036783,-0.4848041534,1.164067797,
4.923982824,-0.8664803505,0.6909539104,-0.3981170654,1.177583416,
4.928725116,-0.8748824,0.6965097189,-0.4213571548,1.19502588,
4.933467355,-0.8483816981,0.6853227615,-0.5185441971,1.207603775,
4.938209647,-0.8254215717,0.6531760693,-0.5868120193,1.205117461,
4.942951939,-0.8090596795,0.6052045822,-0.631064415,1.191256667,
4.947694178,-0.8145004511,0.5608884096,-0.6203517914,1.167408728,
4.95243647,-0.823515892,0.5203219652,-0.6648349762,1.179372256,
4.957178762,-0.7962090969,0.4932288527,-0.6760635376,1.15511278,
4.961921053,-0.7523579001,0.4605125189,-0.6565275192,1.099610192,
4.966663293,-0.7161625028,0.3720981479,-0.5728244781,0.9896836084,
4.971405585,-0.6832101345,0.3068742156,-0.4178886414,0.8576589,
4.976147876,-0.6108087897,0.2862156034,-0.2157335281,0.7082003279,
4.980890116,-0.5683773756,0.2573294044,-0.01660919189,0.6241371073,
4.985632408,-0.5722830892,0.2749965787,0.2058525085,0.667462589,
4.990374699,-0.6168513894,0.28637743,0.4015188217,0.7897689746,
4.995116939,-0.6771497726,0.2649896145,0.6064033508,0.9468243418,
4.99985923,-0.7448331714,0.234644413,0.8469133377,1.151996812,
5.004601522,-0.7566272616,0.1903671324,1.147021294,1.387221073,
5.009343762,-0.7927481532,0.134329319,1.420670509,1.632421115,
5.014086053,-0.8450992107,0.09743797779,1.579488754,1.794009911,
5.018828345,-0.8794731498,0.06052032113,1.611701965,1.837040815,
5.023570637,-0.98635149,-0.01205518842,1.567684174,1.852206322,
5.028312876,-1.117697477,-0.07952809334,1.485779762,1.860944349,
5.033055168,-1.252093554,-0.1537139416,1.389921188,1.877031473,
5.03779746,-1.328058243,-0.2152938694,1.189204216,1.795632706,
5.042539699,-1.327662945,-0.244974494,0.943444252,1.647054478,
5.047281991,-1.285717368,-0.2785632908,0.7458591461,1.512273958,0.0
5.052024283,-1.239343643,-0.277793318,0.6010828018,1.405148507,0.0
5.056766574,-1.186998844,-0.2954292595,0.5305137634,1.33330025,0.0
5.061508814,-1.151167154,-0.2622763813,0.4813928604,1.275034824,0.0
5.066251105,-1.127665281,-0.2168802321,0.3938789368,1.214004382,0.0
5.070993397,-1.111494303,-0.1760430187,0.3660755157,1.183394276,0.0
5.075735637,-1.073298693,-0.09927052259,0.3692731857,1.139380273,0.0
5.080477928,-1.057737112,0.01327311993,0.4561052322,1.151961786,0.0
5.08522022,-1.006449699,0.1135495603,0.5858955383,1.170088921,0.0
5.089962512,-0.9615510106,0.2444376647,0.6821479797,1.204016605,0.0
5.094704751,-0.9055526853,0.3173858225,0.7473459244,1.216258754,0.0
5.099447043,-0.8786916137,0.4137606025,0.7695960999,1.239183177,0.0
5.104189335,-0.8853217959,0.4618905485,0.6796312332,1.207905698,0.0
5.108931626,-0.9156733751,0.4526873231,0.4704189301,1.124578815,0.0
5.113673866,-0.9313161373,0.4296883345,0.2066669464,1.046275795,0.0
5.118416158,-0.9228953123,0.4746957421,-0.0350561142,1.038412604,0.0
5.123158449,-0.8621013165,0.5162577629,-0.2619819641,1.03844851,0.0
5.127900689,-0.7478384376,0.6118746996,-0.4718122482,1.075295203,0.0
5.13264298,-0.607364893,0.7207574844,-0.6335391998,1.135673977,0.0
5.137385272,-0.4623836875,1.010113955,-0.6061506271,1.265522603,0.0
5.142127564,-0.4012454748,1.240226984,-0.4424648285,1.376566754,0.0
5.146869803,-0.5907982588,1.267412782,-0.2789077759,1.425891752,0.0
5.151612095,-0.9198610783,1.084561348,-0.08431720734,1.424614724,0.0
5.156354387,-0.9910197854,1.012187004,0.06478309631,1.41804076,0.0
5.161096678,-0.6100485921,1.126132965,0.05595970154,1.281977468,0.0
5.165838918,-0.07588046789,1.294018507,-0.03184127808,1.296632411,0.0
5.17058121,0.1754481792,1.333409548,0.06443500519,1.346445304,0.0
5.175323501,0.02736473083,1.272768497,0.07197761536,1.275095782,0.0
5.180065793,-0.3373855352,1.104691505,0.1630830765,1.166519786,0.0
5.184808033,-0.5164176822,1.005954504,0.3257169724,1.176742637,0.0
5.189550324,-0.2350910306,1.023965597,0.4904232025,1.159434455,0.0
5.194292616,0.2379656434,1.127185464,0.6189117432,1.307756271,0.0
5.199034908,0.4795193672,1.219784379,0.7447166443,1.507453361,0.0
5.203777147,0.4017966688,1.229944229,0.8989582062,1.575540931,0.0
5.208519439,0.1822422743,1.272321224,1.005094528,1.631633707,0.0
5.21326173,0.04297697544,1.291732073,1.039244652,1.658447531,0.0
5.218004022,-0.0002413988113,1.323823929,1.025349617,1.67447057,0.0
5.222746262,0.02027833462,1.279919624,1.016010284,1.634283437,0.0
5.227488553,0.06022870541,1.222087741,1.013547897,1.588837715,0.0
5.232230845,0.09044003487,1.083484411,0.9988393784,1.476413889,0.0
5.236973137,0.01052755117,0.9291492105,1.007834435,1.370824326,0.0
5.241715376,-0.04028695822,0.7427171469,1.12189579,1.346069078,0.0
5.246457668,-0.05412495136,0.5845918655,1.228627205,1.361690849,0.0
5.25119996,0.006089270115,0.4483170509,1.404691696,1.474511451,0.0
5.255942251,0.1205373704,0.3083899617,1.70035553,1.732294015,0.0
5.260684491,0.1491857171,0.1725748479,1.979249001,1.992351641,0.0
5.265426783,0.1284268796,0.1444036067,2.078801155,2.08776438,0.0
5.270169074,0.1382458806,0.1121852398,2.116418839,2.123894101,0.0
5.274911366,0.2876242399,0.08143720031,2.283473969,2.302957465,0.0
5.279653658,0.5510675907,0.0335804224,2.555868149,2.614816462,0.0
5.284395897,0.8375105262,-0.05964571238,2.72058773,2.847205488,0.0
5.289138189,1.086741686,-0.1811567843,2.78007412,2.990424281,0.0
5.29388048,1.255296469,-0.4166297317,2.782196999,3.080579442,0.0
5.298622772,1.448122025,-0.645886898,2.69347477,3.125545331,0.0
5.303365012,1.569279313,-0.8396847844,2.339391708,2.939466221,0.0
5.308107303,1.623845816,-1.01630199,1.81106472,2.63622844,0.0
5.312849595,1.576167941,-1.151426911,1.350168228,2.37340337,0.0
5.317591887,1.390125155,-1.283543229,1.193313599,2.236946247,0.0
5.322334178,1.146410704,-1.446701169,1.22056675,2.21291323,0.0
5.327076418,0.8603762388,-1.591787696,1.364764214,2.266410532,0.0
5.33181871,0.5354212523,-1.801409483,1.592311859,2.463170538,0.0
5.336561001,0.2517457008,-1.945259094,1.812282562,2.670538696,0.0
5.341303293,0.06344252825,-2.089171648,2.036680222,2.918343615,0.0
5.346045585,-0.0203885138,-2.231754541,2.217720985,3.146336027,0.0
5.350787824,-0.06669208407,-2.361968517,2.343562126,3.328006393,0.0
5.355530116,-0.1036744714,-2.492443323,2.459757805,3.503345626,0.0
5.360272408,-0.1205720603,-2.590167284,2.587910652,3.663439057,0.0
5.365014699,-0.06555762887,-2.626808167,2.6395998,3.724500779,0.0
5.369756991,0.1129918098,-2.56925559,2.643676758,3.688206643,0.0
5.37449923,0.3492737412,-2.441569805,2.57393074,3.564880744,0.0
5.379241522,0.4768589139,-2.317935705,2.485480309,3.431884719,0.0
5.383983814,0.5274598002,-2.2029953,2.27794075,3.212540458,0.0
5.388726105,0.5587351918,-2.067597628,1.841464043,2.82455922,0.0
5.393468345,0.5873079896,-1.97556591,1.343693733,2.460346356,0.0
5.398210637,0.6246078014,-1.849624157,0.822933197,2.118599413,0.0
5.402952928,0.6241800785,-1.72730732,0.2552509308,1.854277321,0.0
5.40769522,0.5920107365,-1.617522717,-0.2708835602,1.743626782,0.0
5.412437512,0.5103675723,-1.517267704,-0.7125434875,1.752225604,0.0
5.417179751,0.4693205059,-1.392455578,-1.081860542,1.824723679,0.0
5.421922043,0.4971371889,-1.194858551,-1.367026329,1.882443446,0.0
5.426664335,0.531572938,-1.044004798,-1.549038887,1.942173339,0.0
5.431406626,0.491230756,-0.89179039,-1.778698921,2.049479838,0.0
5.436148918,0.4428727031,-0.7716647387,-1.869470596,2.070391994,0.0
5.44089121,0.4152965546,-0.6524446011,-1.948270321,2.096166126,0.0
5.445633449,0.3707513213,-0.526807189,-2.043813705,2.142931828,0.0
5.450375741,0.3766453266,-0.3922282457,-2.084354401,2.154121159,0.0
5.455118033,0.3951075375,-0.2941456437,-2.112988949,2.169643732,0.0
5.459860324,0.4384125173,-0.2014263272,-2.091468334,2.14639649,0.0
5.464602616,0.4803803563,-0.1046590805,-1.988752365,2.048622654,0.0
5.469344855,0.5307767987,-0.03034299612,-1.919689655,1.991947058,0.0
5.474087147,0.5347025394,0.0524392724,-1.848343849,1.924845882,0.0
5.478829439,0.4612369537,0.1004149318,-1.78903389,1.850260778,0.0
5.48357173,0.3273934424,0.1852463484,-1.734541893,1.774862883,0.0
5.488314022,0.2146323323,0.2300848961,-1.677646637,1.706899041,0.0
5.493056314,0.1061566174,0.2181512117,-1.644634247,1.66243225,0.0
5.497798553,0.03060424328,0.1851857901,-1.690438271,1.700826841,0.0
5.502540845,-0.04588282108,0.1431100368,-1.74323082,1.749696947,0.0
5.507283137,-0.07623112202,0.07271254063,-1.834116459,1.837139484,0.0
5.512025428,-0.104460001,-0.01177608967,-1.941572189,1.944415885,0.0
5.51676772,-0.1051967144,-0.08902841806,-2.09193182,2.096466348,0.0
5.521510012,-0.1173151135,-0.1422396302,-2.213469028,2.221134865,0.0
5.526252251,-0.02176344395,-0.1833422184,-2.308674812,2.31604564,0.0
5.530994543,0.1209915876,-0.1884294748,-2.380037785,2.390548993,0.0
5.535736835,0.3080838323,-0.1743577123,-2.377420425,2.403631448,0.0
5.540479126,0.3838735521,-0.1436429024,-2.353540421,2.388963101,0.0
5.545221418,0.377287358,-0.06522858143,-2.35147047,2.382438644,0.0
5.54996371,0.3651742339,-0.02529323101,-2.282698631,2.311861806,0.0
5.554706001,0.42439574,0.04786765575,-2.156841278,2.198719481,0.0
5.559448241,0.4953980446,0.1731550694,-2.03848505,2.104952066,0.0
5.564190533,0.5787127018,0.2834851742,-1.90126276,2.007504002,0.0
5.568932824,0.696696043,0.4266495705,-1.735552788,1.918217587,0.0
5.573675116,0.8671536446,0.5477045774,-1.577167511,1.881327485,0.0
5.578417408,1.045622706,0.7042993307,-1.464292526,1.932231092,0.0
5.583159699,1.139483809,0.7579743862,-1.406409264,1.96238007,0.0
5.587901939,1.16598773,0.8048158884,-1.393885612,1.987504239,0.0
5.59264423,1.182901025,0.8188714981,-1.352554321,1.974641374,0.0
5.597386522,1.132561445,0.8051757812,-1.311191559,1.910556665,0.0
5.602128814,1.076748252,0.8046611547,-1.27464962,1.852457294,0.0
5.606871105,1.017204762,0.7576336861,-1.259731293,1.787634543,0.0
5.611613397,0.9822057486,0.7241754532,-1.206695557,1.71617959,0.0
5.616355689,0.9356866479,0.6948428154,-1.161055565,1.645103664,0.0
5.62109798,0.9923022985,0.7273006439,-1.144366264,1.680239336,0.0
5.62584022,1.010750294,0.7498315573,-1.120744705,1.685209843,0.0
5.630582512,1.0222013,0.7794165611,-1.099783897,1.691718148,0.0
5.635324803,1.050601244,0.7706085443,-1.040823936,1.667607559,0.0
5.640067095,1.090608835,0.7471626997,-0.9224157333,1.611995818,0.0
5.644809387,1.155922771,0.7373557091,-0.7111663818,1.544541523,0.0
5.649551678,1.167113304,0.6737886667,-0.533914566,1.449554896,0.0
5.65429397,1.236406922,0.661605835,-0.4671421051,1.478054838,0.0
5.659036262,1.258402586,0.6071580648,-0.4174308777,1.4582409,0.0
5.663778501,1.195183516,0.5700073242,-0.3297071457,1.364580077,0.0
5.668520793,1.147860527,0.5069227219,-0.2445859909,1.278427449,0.0
5.673263085,1.123917341,0.4703452587,-0.1572265625,1.228468577,0.0
5.678005376,1.121228099,0.4287567139,-0.02690792084,1.200711791,0.0
5.682747668,1.089653373,0.3698905706,0.1176633835,1.156723035,0.0
5.68748996,0.9909675121,0.3746138811,0.2358627319,1.085349436,0.0
5.692232251,0.9328426123,0.3588091135,0.3397102356,1.055624158,0.0
5.696974543,0.8627591133,0.3580822945,0.412525177,1.021152897,0.0
5.701716835,0.8169382811,0.4032769203,0.4950428009,1.03686441,0.0
5.706459074,0.8075742126,0.4537308812,0.5944433212,1.100641033,0.0
5.711201366,0.7989922762,0.5046688914,0.6389942169,1.140786113,0.0
5.715943658,0.8178147674,0.5419813991,0.616815567,1.158890105,0.0
5.720685949,0.8163073063,0.6089593172,0.6140613556,1.189226815,0.0
5.725428241,0.7969576716,0.6818108559,0.5661392212,1.191856196,0.0
5.730170533,0.812410593,0.7657234669,0.4754610062,1.213427611,0.0
5.734912824,0.8194801807,0.8920308352,0.3803062439,1.269606087,0.0
5.739655116,0.8443629742,0.9341465235,0.2854328156,1.291143079,0.0
5.744397355,0.898570478,0.9831536412,0.3151245117,1.368694065,0.0
5.749139647,0.9433125854,1.022204399,0.3544092178,1.435390665,0.0
5.753881939,0.9926786423,1.06319797,0.3936862946,1.506913969,0.0
5.75862423,0.9700752497,1.08442688,0.3803625107,1.503896036,0.0
5.763366522,0.9666087627,1.121852398,0.3288602829,1.516916078,0.0
5.768108814,0.896435976,1.120465636,0.2607774734,1.458439437,0.0
5.772851105,0.8671700954,1.106546283,0.2717781067,1.43188407,0.0
5.777593397,0.8903462887,1.087081671,0.2637090683,1.429687219,0.0
5.782335689,0.8528987169,1.052399516,0.2365293503,1.375109849,0.0
5.78707798,0.8165069818,0.9665074944,0.2332458496,1.286555096,0.0
5.79182022,0.7619045973,0.8556078076,0.2753505707,1.178295919,0.0
5.796562512,0.7728154659,0.741266191,0.362783432,1.130633066,0.0
5.801304803,0.8136509061,0.6258785725,0.4572753906,1.123767132,0.0
5.806047095,0.8272769451,0.5380665064,0.5803804398,1.144877358,0.0
5.810789387,0.808965981,0.4466459751,0.6890382767,1.152689174,0.0
5.815531678,0.7444329262,0.3588093519,0.7689247131,1.128791277,0.0
5.82027397,0.6722993255,0.2459079027,0.8488063812,1.110373519,0.0
5.825016262,0.7149835825,0.1726871729,0.933511734,1.188472356,0.0
5.829758553,0.8080337048,0.1893668175,0.9967622757,1.297040205,0.0
5.834500845,0.9227957726,0.181278348,1.048143387,1.408196874,0.0
5.839243137,1.021106482,0.1341166496,1.111597061,1.515352681,0.0
5.843985428,1.052848935,0.06702566147,1.218214989,1.611530663,0.0
5.84872772,1.087518573,0.001564741135,1.399038315,1.772006575,0.0
5.853470012,1.046562195,-0.07420182228,1.577507973,1.89455265,0.0
5.858212251,1.028534412,-0.1242500544,1.677153587,1.97133591,0.0
5.862954543,0.9785801172,-0.1699639559,1.690909386,1.961040882,0.0
5.867696835,0.8490483761,-0.1895006895,1.580604553,1.804190791,0.0
5.872439126,0.630531311,-0.2400233746,1.42767334,1.579060518,0.0
5.877181418,0.3685734272,-0.2924841642,1.244087219,1.330092616,0.0
5.88192371,0.1777020693,-0.3082749844,1.044150352,1.103114432,0.0
5.886666001,0.02844512463,-0.2824524641,0.8205881119,0.8683048825,0.0
5.891408293,-0.1013844013,-0.2411191463,0.5996141434,0.6541822074,0.0
5.896150585,-0.3004263639,-0.2463009357,0.4911642075,0.626228736,0.0
5.900892876,-0.578202486,-0.2262800932,0.4879226685,0.7896767224,0.0
5.905635168,-0.7221955061,-0.1286542416,0.5945034027,0.9442206091,0.0
5.91037746,-0.8096855879,0.0103174448,0.6959457397,1.067725467,0.0
5.915119751,-0.8409649134,0.1687545776,0.7755231857,1.156346101,0.0
5.919862043,-0.7732080221,0.358415246,0.9384708405,1.267690677,0.0
5.924604335,-0.6254564524,0.5218318701,1.163194656,1.420044395,0.0
5.929346626,-0.4307872057,0.6780776978,1.428177834,1.638614935,0.0
5.934088866,-0.1746555567,0.8175157309,1.69038105,1.88579549,0.0
5.93883121,0.1457898617,0.882753849,1.904458046,2.104155291,0.0
5.943573449,0.3878650665,0.9194755554,2.12556839,2.348172819,0.0
5.948315741,0.5476028323,0.9016202688,2.349001884,2.574994723,0.0
5.953058033,0.5918952227,0.8339637518,2.493515968,2.695080217,0.0
5.957800324,0.5494272709,0.7024304867,2.513724327,2.667224945,0.0
5.962542616,0.4746229649,0.5166584253,2.361861229,2.463857007,0.0
5.967284908,0.3234312534,0.2267102003,2.131196976,2.167488371,0.0
5.972027199,0.1761169434,-0.09066462517,1.840756416,1.851383655,0.0
5.976769491,0.04596352577,-0.4854745865,1.488014221,1.565881395,0.0
5.981511783,-0.06310343742,-0.8881690502,1.147007942,1.452051488,0.0
5.986254074,-0.1490485668,-1.260393977,0.8343763351,1.51887864,0.0
5.990996366,-0.202367425,-1.590209484,0.5572404861,1.697125728,0.0
5.995738658,-0.3256118298,-1.880283237,0.4543218613,1.961605584,0.0
6.000480949,-0.431748271,-2.042327404,0.4036207199,2.126127343,0.0
6.005223241,-0.5601440668,-2.119626045,0.3574781418,2.221343415,0.0
6.009965533,-0.6210877895,-2.107815504,0.3783121109,2.229743549,0.0
6.014707824,-0.6832374334,-2.045855045,0.5069103241,2.215692743,0.0
6.019450116,-0.836663723,-1.965492606,0.6811981201,2.242141443,0.0
6.024192408,-0.9846087694,-1.883879423,0.7459287643,2.252746286,0.0
6.028934699,-1.02339232,-1.791505933,0.7683506012,2.201633029,0.0
6.033676991,-1.041320801,-1.71228075,0.6601028442,2.109973967,0.0
6.038419283,-1.041353822,-1.60061419,0.4595079422,1.964059856,0.0
6.043161574,-1.031449437,-1.54006207,0.2621870041,1.872009921,0.0
6.047903866,-0.9476823807,-1.47541666,0.09193134308,1.755963436,0.0
6.052646158,-0.8242782354,-1.375316143,-0.01079368591,1.603448037,0.0
6.057388449,-0.7169193029,-1.234993219,-0.1179075241,1.432858584,0.0
6.062130741,-0.5953570604,-1.076037526,-0.1602134705,1.240151258,0.0
6.066873033,-0.4749572277,-0.8985244632,-0.2718677521,1.052065898,0.0
6.071615324,-0.3924996853,-0.7812634706,-0.3860301971,0.9557446974,0.0
6.076357616,-0.2768900394,-0.6164808273,-0.5243749619,0.8553863484,0.0
6.081099908,-0.2219237089,-0.5381019115,-0.6104755402,0.8434952193,0.0
6.085842199,-0.2252182961,-0.4672136307,-0.6730985641,0.849749101,0.0
6.090584491,-0.1745468378,-0.3822045326,-0.7553873062,0.8643823724,0.0
6.095326783,-0.08923196793,-0.3500789404,-0.7903881073,0.8690402573,0.0
6.100069074,-0.0002770423889,-0.3086344004,-0.8331346512,0.88846419,0.0
6.104811366,0.09726881981,-0.2842019796,-0.7855424881,0.8410166402,0.0
6.109553658,0.2036749125,-0.2839826345,-0.7409143448,0.8191969684,0.0
6.114295949,0.3024629354,-0.3008073568,-0.703959465,0.8231207819,0.0
6.119038241,0.3845373392,-0.3298616409,-0.6315412521,0.809643144,0.0
6.123780533,0.4311716557,-0.3663070202,-0.5188455582,0.7676526186,0.0
6.128522824,0.5502723455,-0.4052420855,-0.3897953033,0.7867408599,0.0
6.133265116,0.6651848555,-0.4252381325,-0.270699501,0.8346116349,0.0
6.138007408,0.7157878876,-0.4959204197,-0.1711139679,0.8874510424,0.0
6.142749699,0.6878652573,-0.5767121315,-0.08618545532,0.9017668365,0.0
6.147491991,0.5963648558,-0.6963341236,-0.0899066925,0.9212032709,0.0
6.152234283,0.5113925934,-0.7995952368,-0.09598445892,0.9539852953,0.0
6.156976574,0.4528131485,-0.9342650175,-0.1449403763,1.048283637,0.0
6.161718866,0.3851549625,-1.038180947,-0.2270736694,1.130365638,0.0
6.166461158,0.3302881718,-1.149740696,-0.2561864853,1.223366445,0.0
6.171203449,0.2646288872,-1.235470057,-0.2801113129,1.294170412,0.0
6.175945741,0.2653055191,-1.285673857,-0.3561811447,1.360223986,0.0
6.180688033,0.2972592115,-1.295373917,-0.436413765,1.398861536,0.0
6.185430324,0.3276492357,-1.285866499,-0.5685844421,1.443639478,0.0
6.190172616,0.2875692844,-1.235497236,-0.7573881149,1.477425555,0.0
6.194914908,0.1966793537,-1.18463707,-0.9549379349,1.534260152,0.0
6.199657199,0.1178209782,-1.140044689,-1.106218338,1.592891298,0.0
6.204399491,0.04643046856,-1.060595989,-1.271129608,1.656137108,0.0
6.209141783,0.1087222099,-0.9244014025,-1.500029564,1.765340524,0.0
6.213884074,0.1550006866,-0.8175359964,-1.711759567,1.903289556,0.0
6.218626366,0.05032622814,-0.7326076031,-1.885023117,2.023007361,0.0
6.223368658,-0.1050109863,-0.6883815527,-2.041509151,2.157001642,0.0
6.228110949,-0.1893297434,-0.576880455,-2.205265045,2.287319551,0.0
6.232853241,-0.184230566,-0.4434403181,-2.39316082,2.440860284,0.0
6.237595533,-0.2220957279,-0.3622356653,-2.559856892,2.59488121,0.0
6.242337824,-0.2918667793,-0.2783071995,-2.681610107,2.711765824,0.0
6.247080116,-0.3940854073,-0.2181628942,-2.765710831,2.802151808,0.0
6.251822408,-0.4860644341,-0.2034721375,-2.797895432,2.847082435,0.0
6.256564699,-0.5633126497,-0.1840834618,-2.87628746,2.936705197,0.0
6.261306991,-0.6118446589,-0.1697804928,-2.886075974,2.955099631,0.0
6.266049283,-0.6199188232,-0.1370512247,-2.793820858,2.865051024,0.0
6.270791626,-0.5496177673,-0.08159971237,-2.613955021,2.672358332,0.0
6.275533918,-0.4564461708,-0.02319073677,-2.38958168,2.432895708,0.0
6.28027621,-0.3450442553,0.03295743465,-2.20432663,2.231411576,0.0
6.285018501,-0.2721873522,0.08894395828,-2.029272079,2.04937604,0.0
6.289760793,-0.2418224812,0.1037867069,-1.866586208,1.885044792,0.0
6.294503085,-0.2197589874,0.1417491436,-1.682592392,1.702792997,0.0
6.299245376,-0.1598602533,0.1762378216,-1.481926441,1.500906742,0.0
6.303987668,-0.0977114439,0.1997550726,-1.223843575,1.243882113,0.0
6.30872996,0.007570028305,0.2476495504,-0.9584989548,0.9900039654,0.0
6.313472251,0.1035792828,0.2597882748,-0.6571130753,0.7141541915,0.0
6.318214543,0.07109200954,0.2861696482,-0.43201828,0.5230553849,0.0
6.322956835,0.01602935791,0.2860722542,-0.306933403,0.4198837801,0.0
6.327699126,-0.0371735096,0.3003414869,-0.2123384476,0.3696951378,0.0
6.332441418,-0.06658446789,0.3315172195,-0.1720695496,0.3794009595,0.0
6.33718371,-0.05771648884,0.3559467793,-0.1549987793,0.3924970373,0.0
6.341926001,-0.03455936909,0.4217344522,-0.1611461639,0.4527939756,0.0
6.346668293,0.05752432346,0.493419528,-0.2049703598,0.5373869433,0.0
6.351410585,0.1986545324,0.5952861309,-0.3081274033,0.6991220906,0.0
6.356152928,0.2564969063,0.6511726379,-0.4563989639,0.8355336508,0.0
6.36089522,0.06079220772,0.6663662195,-0.6140499115,0.9081833102,0.0
6.365637512,-0.1302633286,0.6916493177,-0.7788352966,1.049729362,0.0
6.370379803,-0.2195000648,0.6914060116,-0.9270420074,1.17712762,0.0
6.375122095,-0.2436704636,0.7139062881,-1.056516647,1.298177534,0.0
6.379864387,-0.2920241356,0.697070837,-1.095703125,1.331071443,0.0
6.384606678,-0.3672909737,0.6457947493,-1.054359436,1.289816785,0.0
6.38934897,-0.4338351488,0.5529490709,-0.9445886612,1.17737562,0.0
6.394091262,-0.4797408581,0.4615902901,-0.8525476456,1.081690517,0.0
6.398833553,-0.5241706371,0.3454830647,-0.7949571609,1.012951278,0.0
6.403575845,-0.5140172243,0.1998554468,-0.7047100067,0.894858704,0.0
6.408318137,-0.5612858534,0.06770777702,-0.5793485641,0.8094880549,0.0
6.413060428,-0.5389093161,-0.07750320435,-0.4235954285,0.6898283008,0.0
6.417802772,-0.5280908346,-0.1905580759,-0.3019590378,0.6374727997,0.0
6.422545064,-0.5334569216,-0.291031003,-0.1736345291,0.6320002228,0.0
6.427287355,-0.5904392004,-0.3793145418,-0.01457214355,0.701933272,0.0
6.432029647,-0.5977088213,-0.4319602251,0.2304134369,0.7726162198,0.0
6.436771939,-0.5971710682,-0.4757051468,0.5160484314,0.9215284341,0.0
6.44151423,-0.5521247387,-0.4345686436,0.8161973953,1.076972526,0.0
6.446256522,-0.4957704544,-0.3952279091,1.056836128,1.232435007,0.0
6.450998814,-0.5904500484,-0.3844815493,1.226191521,1.414214611,0.0
6.455741105,-0.7111958265,-0.3713985682,1.345956802,1.566951216,0.0
6.460483397,-0.8024019003,-0.3679347038,1.370832443,1.630462003,0.0
6.465225689,-0.8208853006,-0.3236300945,1.327217102,1.593767345,0.0
6.46996798,-0.7621554136,-0.2024029493,1.274887085,1.499061342,0.0
6.474710324,-0.7173786163,-0.09731853008,1.192250252,1.394834628,0.0
6.479452616,-0.6868901253,0.02531516552,1.095996857,1.293703216,0.0
6.484194908,-0.6901909113,0.1586008072,0.9453868866,1.181217201,0.0
6.488937199,-0.6434041262,0.2719422579,0.7834701538,1.04964134,0.0
6.493679491,-0.5919725895,0.3896796703,0.6962823868,0.9935245112,0.0
6.498421783,-0.5096604824,0.507376194,0.6214990616,0.9504974977,0.0
6.503164074,-0.4280531406,0.6418789625,0.6427059174,1.004145901,0.0
6.507906366,-0.4170644283,0.8241437674,0.7429838181,1.185403155,0.0
6.512648658,-0.4077516794,0.9198259115,0.977221489,1.402605781,0.0
6.517391001,-0.3237800598,1.040979743,1.242484093,1.6529486,0.0
6.522133293,-0.2534364462,1.122680187,1.46232605,1.860924048,0.0
6.526875585,-0.2008004189,1.155243754,1.579566002,1.967215721,0.0
6.531617876,-0.1531857252,1.141035318,1.623167038,1.989999673,0.0
6.536360168,-0.1584498882,1.020329475,1.581279755,1.888550838,0.0
6.54110246,-0.1285241842,0.8529951572,1.473088264,1.707075932,0.0
6.545844751,-0.1268144846,0.6748744249,1.300897598,1.471010525,0.0
6.550587043,-0.1977590322,0.4524290562,1.179338455,1.278530359,0.0
6.555329335,-0.325935483,0.2500243187,1.148805618,1.220041166,0.0
6.560071626,-0.5318629742,0.08161461353,1.228125572,1.340832424,0.0
6.56481397,-0.7473976612,-0.06995022297,1.407437325,1.595110065,0.0
6.569556262,-0.9854365587,-0.1858136654,1.590858459,1.880543158,0.0
6.574298553,-1.124785781,-0.3404972553,1.816589355,2.163579978,0.0
6.579040845,-1.086595297,-0.4621934891,2.079836845,2.391659145,0.0
6.583783137,-0.9347468615,-0.5888998508,2.299403191,2.551040917,0.0
6.588525428,-0.6703156233,-0.6578087807,2.561600685,2.728338963,0.0
6.59326772,-0.277713418,-0.7233303785,2.737402916,2.844943989,0.0
6.598010012,0.170072794,-0.6864906549,2.810228348,2.897857405,0.0
6.602752355,0.666698873,-0.608776927,2.847146034,2.986860773,0.0
6.607494647,1.08178091,-0.5443880558,2.85059166,3.097173083,0.0
6.612236939,1.462272406,-0.52827847,2.837347031,3.23540676,0.0
6.61697923,1.745162845,-0.528331399,2.754797935,3.303579738,0.0
6.621721522,1.979804516,-0.5292544365,2.562317848,3.281037783,0.0
6.626463814,2.104937077,-0.5373624563,2.302945137,3.165924006,0.0
6.631206105,2.14721036,-0.5688925982,2.069865227,3.036197157,0.0
6.635948397,2.068378925,-0.5660424232,1.872456551,2.846873537,0.0
6.640690741,1.777286053,-0.672249198,1.648392677,2.515524422,0.0
6.645433033,1.307072163,-0.8206292391,1.510033607,2.159183059,0.0
6.650175324,0.728764236,-1.042639375,1.416599274,1.903929536,0.0
6.654917616,0.1581608057,-1.26240623,1.341696739,1.849009051,0.0
6.659659908,-0.257876277,-1.459174871,1.25899601,1.944418276,0.0
6.664402199,-0.5011870861,-1.528298736,1.11353302,1.956231404,0.0
6.669144491,-0.5769109726,-1.554112673,0.9341897964,1.902840783,0.0
6.673886835,-0.5977703333,-1.539538145,0.7426347733,1.810804649,0.0
6.678629126,-0.590597868,-1.537767529,0.5963335037,1.751898531,0.0
6.683371418,-0.5680439472,-1.565991044,0.5167570114,1.744144399,0.0
6.68811371,-0.5977233648,-1.560099602,0.4655704498,1.734341325,0.0
6.692856001,-0.589451313,-1.537460566,0.4355697632,1.703220144,0.0
6.697598293,-0.4913281202,-1.505693078,0.3884506226,1.630769405,0.0
6.702340585,-0.4114123583,-1.436418772,0.3624897003,1.537516764,0.0
6.707082928,-0.3089255095,-1.389802575,0.4510011673,1.493448433,0.0
6.71182522,-0.2073184252,-1.25123179,0.6276569366,1.415102523,0.0
6.716567512,-0.005579948425,-1.097537279,0.7538022995,1.331479298,0.0
6.721309803,0.2008991241,-0.9288290739,0.8774023056,1.293413589,0.0
6.726052095,0.3887097836,-0.7357163429,0.9579277039,1.268857486,0.0
6.730794387,0.5872068405,-0.582839489,1.050541878,1.337218,0.0
6.73553673,0.7657513618,-0.4534679651,1.081190109,1.400350098,0.0
6.740279022,0.9178239703,-0.3402000666,1.002183914,1.400895972,0.0
6.745021314,1.000621319,-0.2310864925,0.9141187668,1.374866215,0.0
6.749763605,1.002203107,-0.1788887978,0.9078893661,1.36406575,0.0
6.754505897,1.020116568,-0.1361714602,1.028820992,1.45521583,0.0
6.759248189,1.12313962,-0.1296970844,1.145259857,1.609311679,0.0
6.76399048,1.291871548,-0.09510147572,1.23811245,1.791898107,0.0
6.768732824,1.433633089,-0.05887162685,1.211905479,1.878159896,0.0
6.773475116,1.496681333,-0.06398487091,1.007126808,1.805118689,0.0
6.778217408,1.474706411,-0.1078990698,0.7173566818,1.643472488,0.0
6.782959699,1.337109566,-0.1786789894,0.3642978668,1.397319258,0.0
6.787701991,1.163273215,-0.3121571541,-0.02322101593,1.204651766,0.0
6.792444283,0.9439538717,-0.4796078205,-0.339884758,1.112022582,0.0
6.797186626,0.7918242812,-0.6355336905,-0.5426979065,1.151264427,0.0
6.801928918,0.7114610076,-0.7322980165,-0.6461086273,1.20826053,0.0
6.80667121,0.6617401242,-0.8586810827,-0.7625961304,1.32543806,0.0
6.811413501,0.4965900183,-0.9595601559,-0.9184589386,1.418070577,0.0
6.816155793,0.3477445841,-1.017938137,-1.144748688,1.570851331,0.0
6.820898137,0.2101665735,-1.050226808,-1.391251564,1.755769703,0.0
6.825640428,0.1265372038,-1.089525104,-1.672398567,1.999998396,0.0
6.83038272,0.1586215496,-1.209355116,-1.981136799,2.326500292,0.0
6.835125012,0.2487142086,-1.294412851,-2.145379543,2.517938993,0.0
6.839867303,0.4252171516,-1.272680402,-2.21561861,2.590268491,0.0
6.844609595,0.6256532073,-1.153674603,-2.213551044,2.573366521,0.0
6.849351939,0.8021239638,-0.9374531507,-2.139278412,2.469561375,0.0
6.85409423,0.8213407397,-0.7292916775,-2.004758835,2.285940714,0.0
6.858836522,0.6633623838,-0.3879499435,-1.797926903,1.955273883,0.0
6.863578814,0.5107313395,0.01017165184,-1.616877556,1.695654149,0.0
6.868321105,0.4625132084,0.4823150635,-1.653229713,1.783175475,0.0
6.873063449,0.3621715307,1.084180593,-1.919436455,2.234021504,0.0
6.877805741,0.5346568823,1.798227072,-2.650529385,3.24727341,0.0
6.882548033,1.002028108,2.595585346,-3.64610815,4.586417803,0.0
6.887290324,1.493228197,3.250705957,-4.574176788,5.806884962,0.0
6.892032616,1.846452117,3.568529367,-5.126578331,6.513493122,0.0
6.896774908,1.822165728,3.391360998,-5.157601833,6.436029368,0.0
6.901517251,1.650667191,2.934272528,-4.825093269,5.883551861,0.0
6.906259543,1.665047884,2.333228111,-4.389493465,5.242517597,0.0
6.911001835,1.834869266,1.637883186,-3.687625885,4.432605466,0.0
6.915744126,1.930147409,0.9428107738,-2.707170963,3.455884229,0.0
6.920486418,1.873144984,0.2820959091,-1.866547585,2.659370249,0.0
6.925228762,1.83003974,-0.3031535149,-1.466815948,2.364845984,0.0
6.929971053,1.793248177,-0.7979998589,-1.069721222,2.235362675,0.0
6.934713345,1.860856295,-1.194242001,-0.5815982819,2.286319459,0.0
6.939455637,1.747112513,-1.480776191,-0.01408672333,2.290261709,0.0
6.944197928,1.392979145,-1.712998629,0.3650712967,2.237863323,0.0
6.948940272,0.9465526342,-1.902741313,0.4292535782,2.168097098,0.0
6.953682564,0.6079466343,-2.001634121,0.2861347198,2.111400327,0.0
6.958424855,0.4654083252,-2.02111125,0.2489948273,2.0888978,0.0
6.963167147,0.5454480052,-1.984507084,0.2649555206,2.07508634,0.0
6.967909491,0.5516687632,-1.886572003,0.3099222183,1.989860329,0.0
6.972651783,0.6183310151,-1.805684686,0.3024120331,1.932429421,0.0
6.977394074,0.6950323582,-1.695729375,0.2039966583,1.84395844,0.0
6.982136366,0.7078481913,-1.616065741,0.3087825775,1.791106982,0.0
6.986878658,0.8728785515,-1.518581271,0.5591678619,1.838661127,0.0
6.991621001,1.200584412,-1.43431294,0.7925281525,2.0314422,0.0
6.996363293,1.498152614,-1.325037956,0.9660358429,2.221128562,0.0
7.001105585,1.742515802,-1.190897226,1.115815163,2.387392092,0.0
7.005847876,1.955438614,-1.046499491,1.165509224,2.505456667,0.0
7.01059022,2.062644482,-0.8990707397,1.120041847,2.513428772,0.0
7.015332512,2.071315527,-0.7819867134,1.017772675,2.436742179,0.0
7.020074803,2.014440536,-0.6566512585,0.7701387405,2.254390212,0.0
7.024817095,1.855315208,-0.5543107986,0.5350675583,2.008918186,0.0
7.029559387,1.621648192,-0.4252076149,0.401008606,1.723761085,0.0
7.03430173,1.365154266,-0.2914175987,0.3152513504,1.431067364,0.0
7.039044022,1.151843071,-0.1700613499,0.1939954758,1.180380264,0.0
7.043786314,0.961540103,-0.1091468334,0.06346416473,0.9697938446,0.0
7.048528605,0.7648512125,-0.034760952,-0.02856349945,0.7661733319,0.0
7.053270949,0.6330074072,0.06720256805,-0.0845746994,0.6421584248,0.0
7.058013241,0.548769474,0.1677417755,-0.104637146,0.5832959551,0.0
7.062755533,0.4664126635,0.2189011574,-0.1175203323,0.5284595707,0.0
7.067497824,0.4048463106,0.2374427319,-0.1185102463,0.4840705161,0.0
7.072240116,0.3804423809,0.2711164951,-0.1292047501,0.4847003472,0.0
7.07698246,0.4264851809,0.2746927738,-0.1138544083,0.5199120654,0.0
7.081724751,0.6218762398,0.3032922745,-0.003184318542,0.6919005718,0.0
7.086467043,0.9000803232,0.3259608746,0.2123165131,0.9805474908,0.0
7.091209335,1.132684231,0.3404300213,0.4609155655,1.269373595,0.0
7.095951678,1.304085612,0.3299691677,0.7595510483,1.54480961,0.0
7.10069397,1.453675866,0.3042528629,1.046205521,1.816669843,0.0
7.105436262,1.558458924,0.2084252834,1.278019905,2.026220668,0.0
7.110178553,1.638359189,0.1311173439,1.428913116,2.177890099,0.0
7.114920845,1.667441964,0.0082924366,1.391278267,2.171655287,0.0
7.119663189,1.825480223,-0.1115939617,1.303927422,2.24612065,0.0
7.12440548,1.988483548,-0.2040188313,1.272033691,2.369337506,0.0
7.129147772,1.992000937,-0.2972793579,1.305076599,2.399930766,0.0
7.133890064,1.953598976,-0.3910403252,1.302493095,2.380325557,0.0
7.138632408,1.813335657,-0.4301667213,1.230769157,2.233388084,0.0
7.143374699,1.625791311,-0.4887385368,1.156790733,2.054319241,0.0
7.148116991,1.35674417,-0.5356128216,1.080369949,1.815168054,0.0
7.152859283,0.9910362959,-0.6116473675,1.04918766,1.567501256,0.0
7.157601626,0.735496521,-0.7362306118,1.024708748,1.460485763,0.0
7.162343918,0.5767476559,-0.933785677,1.095263481,1.550546885,0.0
7.16708621,0.5019830465,-1.154474735,1.251131058,1.774859943,0.0
7.171828501,0.4556245804,-1.389543056,1.482795715,2.082572159,0.0
7.176570845,0.4974259138,-1.64206183,1.797577858,2.484971981,0.0
7.181313137,0.5127067566,-1.867243409,2.111961365,2.865283053,0.0
7.186055428,0.5208528042,-2.051315546,2.361639023,3.171201978,0.0
7.19079772,0.5076212883,-2.134976864,2.577949524,3.385502818,0.0
7.195540064,0.4993636608,-2.185625076,2.758666992,3.554794595,0.0
7.200282355,0.483792305,-2.196254253,2.841619492,3.623863832,0.0
7.205024647,0.4534151554,-2.126019001,2.807618141,3.550811417,0.0
7.209766939,0.3288135529,-2.079996109,2.694829941,3.420030786,0.0
7.214509283,0.2050259113,-2.055427074,2.546065331,3.278607136,0.0
7.219251574,0.1100003719,-2.039885998,2.423163414,3.169377841,0.0
7.223993866,0.07640457153,-2.061684132,2.392689705,3.159326375,0.0
7.22873621,0.158973217,-2.062865734,2.497331619,3.243046829,0.0
7.233478501,0.4533207417,-2.121759892,2.641100883,3.418007988,0.0
7.238220793,0.7489755154,-2.211125612,2.756746292,3.612435593,0.0
7.242963085,1.173118949,-2.337200403,2.860845566,3.875970994,0.0
7.247705428,1.479913473,-2.468139648,3.111138344,4.238046603,0.0
7.25244772,1.895286322,-2.558397532,3.617704391,4.819262727,0.0
7.257190012,2.36573267,-2.701467037,4.349680901,5.640420122,0.0
7.261932303,2.831056356,-2.823401928,5.101794243,6.481881134,0.0
7.266674647,3.233617306,-2.919603586,5.740715981,7.206676484,0.0
7.271416939,3.542063951,-3.031009197,6.267168045,7.810930104,0.0
7.27615923,3.74650836,-3.167150974,6.588457108,8.21431295,0.0
7.280901522,3.924779415,-3.306364059,6.707399368,8.445421424,0.0
7.285643866,4.013055325,-3.450814247,6.612312317,8.469675683,0.0
7.290386158,4.066648483,-3.626370907,6.346333504,8.364457232,0.0
7.295128449,4.116425514,-3.823044062,5.935738564,8.172736213,0.0
7.299870793,4.1114645,-3.997444868,5.41866684,7.889591633,0.0
7.304613085,4.041178703,-4.151955605,4.840427399,7.549807816,0.0
7.309355376,3.820849657,-4.286705494,4.251124382,7.144703955,0.0
7.314097668,3.600256681,-4.377972603,3.636281967,6.734317993,0.0
7.318840012,3.419352531,-4.416484833,3.029376984,6.354088048,0.0
7.323582303,3.220007181,-4.383481026,2.428003311,5.956387515,0.0
7.328324595,3.065826893,-4.293680191,1.829667091,5.584144141,0.0
7.333066887,2.86973381,-4.200034142,1.28447628,5.246478652,0.0
7.33780923,2.66670084,-4.059831142,0.7874794006,4.920736335,0.0
7.342551522,2.539683819,-3.906864405,0.3457012177,4.672589508,0.0
7.347293814,2.394537926,-3.748727798,-0.04577445984,4.448467971,0.0
7.352036105,2.271337986,-3.593046904,-0.3989667892,4.269442211,0.0
7.356778449,2.171835661,-3.454466581,-0.7211809158,4.143707448,0.0
7.361520741,2.100278854,-3.309226751,-0.9886488914,4.042224584,0.0
7.366263033,2.077772617,-3.255517483,-1.223046303,4.051095579,0.0
7.371005376,2.048982382,-3.20747447,-1.374187946,4.046555793,0.0
7.375747668,2.009050369,-3.196343422,-1.432603359,4.037975612,0.0
7.38048996,1.934111595,-3.176974535,-1.446124077,3.990642768,0.0
7.385232251,1.864888549,-3.19010973,-1.436308861,3.964541907,0.0
7.389974595,1.813140631,-3.214389563,-1.46774435,3.971656164,0.0
7.394716887,1.731023669,-3.206739902,-1.475838661,3.93163115,0.0
7.399459178,1.673471928,-3.226988077,-1.486953735,3.927466328,0.0
7.404201522,1.62133491,-3.201025724,-1.412592411,3.856255943,0.0
7.408943814,1.646620989,-3.157490253,-1.267160416,3.779788473,0.0
7.413686105,1.730658531,-3.101002693,-1.158239841,3.735360248,0.0
7.418428397,1.833270431,-3.045594215,-1.03552103,3.702543504,0.0
7.423170741,1.904828787,-2.998210907,-0.9467363358,3.67613262,0.0
7.427913033,1.948236465,-2.924848557,-0.9110150337,3.630470052,0.0
7.432655324,1.959269524,-2.875160933,-0.8996572495,3.593698738,0.0
7.437397668,1.971930981,-2.836514473,-0.9151182175,3.573760974,0.0
7.44213996,1.898018241,-2.743911743,-0.9311351776,3.463890532,0.0
7.446882251,1.747273088,-2.678573608,-0.8473081589,3.308421215,0.0
7.451624595,1.531795979,-2.666620255,-0.7474822998,3.164805253,0.0
7.456366887,1.244418502,-2.63154006,-0.6005821228,2.972251568,0.0
7.461109178,0.9949703217,-2.645302296,-0.387512207,2.852675216,0.0
7.46585147,0.785640955,-2.763012171,-0.1585378647,2.876908448,0.0
7.470593814,0.6688551903,-2.937065363,0.1414232254,3.015579669,0.0
7.475336105,0.5847171545,-3.15098381,0.4526405334,3.236584091,0.0
7.480078397,0.5355693102,-3.417001486,0.7632694244,3.541936455,0.0
7.484820741,0.4904754162,-3.680454016,1.104595184,3.873814453,0.0
7.489563033,0.4451932907,-3.932227135,1.457744598,4.217300869,0.0
7.494305324,0.3908214569,-4.184674263,1.873204231,4.601427408,0.0
7.499047616,0.3519918919,-4.409358978,2.224411964,4.951197176,0.0
7.50378996,0.3221615553,-4.608736992,2.535497665,5.270008837,0.0
7.508532251,0.3235309124,-4.754086971,2.715761185,5.48464894,0.0
7.513274543,0.3349993229,-4.840711594,2.827612877,5.616058036,0.0
7.518016887,0.213244319,-4.837637901,2.861596107,5.624672958,0.0
7.522759178,0.04411196709,-4.778522015,2.755548477,5.516272829,0.0
7.52750147,-0.1586631536,-4.713736534,2.581240654,5.376549955,0.0
7.532243762,-0.3431338072,-4.590591431,2.278786659,5.136549341,0.0
7.536986105,-0.4860805273,-4.430409431,1.948531151,4.864316566,0.0
7.541728397,-0.6123708487,-4.287979603,1.566315651,4.605986523,0.0
7.546470741,-0.6869046688,-4.112789631,1.198907852,4.338692961,0.0
7.551213033,-0.7724728584,-3.916791916,0.9131126404,4.095332456,0.0
7.555955324,-0.8695342541,-3.652139664,0.7254552841,3.823676151,0.0
7.560697616,-0.8897871971,-3.388183117,0.5951137543,3.553261385,0.0
7.56543996,-0.7709869146,-3.136626959,0.5148086548,3.27076099,0.0
7.570182251,-0.5677547455,-2.902132034,0.5276060104,3.003844852,0.0
7.574924543,-0.4037585258,-2.727574587,0.5187339783,2.805667303,0.0
7.579666887,-0.3022378683,-2.548115492,0.5169754028,2.617537747,0.0
7.584409178,-0.2676184177,-2.401718378,0.491189003,2.465996233,0.0
7.58915147,-0.2301774025,-2.268764973,0.460442543,2.326431489,0.0
7.593893814,-0.1779018641,-2.160887003,0.4844255447,2.221654748,0.0
7.598636105,-0.1585057974,-2.061079264,0.5271482468,2.133320673,0.0
7.603378397,-0.226863265,-1.993217349,0.5957622528,2.092681295,0.0
7.608120689,-0.3520513773,-2.043598652,0.6854867935,2.184062217,0.0
7.612863033,-0.4960542917,-2.073549509,0.7508621216,2.260413978,0.0
7.617605324,-0.5685346127,-2.195653915,0.8875246048,2.435534366,0.0
7.622347616,-0.5841213465,-2.314498425,1.064386368,2.613621825,0.0
7.62708996,-0.5283812284,-2.461396456,1.221727371,2.798263212,0.0
7.631832251,-0.4776136875,-2.562299252,1.328577042,2.925510083,0.0
7.636574543,-0.4288204908,-2.657856226,1.38986969,3.029822517,0.0
7.641316887,-0.3956542015,-2.642778873,1.422482491,3.027255995,0.0
7.646059178,-0.3799425364,-2.565047979,1.424149513,2.958382887,0.0
7.65080147,-0.35727036,-2.436514378,1.356664658,2.811544667,0.0
7.655543814,-0.3608394861,-2.285673618,1.220066071,2.615926268,0.0
7.660286105,-0.3688379526,-2.152869225,1.016760826,2.409292409,0.0
7.665028397,-0.3978636265,-2.009161949,0.837644577,2.212843338,0.0
7.669770689,-0.4549823999,-1.868780851,0.6467914581,2.029209217,0.0
7.674513033,-0.5641874075,-1.70298183,0.4728822708,1.855282239,0.0
7.679255324,-0.7019373178,-1.583592892,0.2823781967,1.755055524,0.0
7.683997616,-0.8494567871,-1.453173518,0.1039476395,1.68644455,0.0
7.68873996,-1.009566545,-1.376362324,0.01405143738,1.70698427,0.0
7.693482251,-1.110872626,-1.322344542,-0.02083778381,1.727155839,0.0
7.698224543,-1.189724207,-1.310569406,0.03751659393,1.770435921,0.0
7.702966887,-1.23667407,-1.360498309,0.1365013123,1.843624423,0.0
7.707709178,-1.301987052,-1.386518955,0.2738304138,1.921610833,0.0
7.71245147,-1.414097548,-1.444206119,0.4783468246,2.07706978,0.0
7.717193814,-1.544150829,-1.521929264,0.6663923264,2.268203959,0.0
7.721936105,-1.605839372,-1.581651449,0.7926540375,2.389276421,0.0
7.726678397,-1.620748043,-1.623642683,0.9218320847,2.4724106,0.0
7.731420741,-1.660577416,-1.624299526,0.9870624542,2.523917312,0.0
7.736163033,-1.679952383,-1.610286951,1.062609673,2.558203157,0.0
7.740905324,-1.676616192,-1.610586405,1.153290749,2.595209042,0.0
7.745647668,-1.61214757,-1.548872471,1.256778717,2.56466732,0.0
7.75038996,-1.512530804,-1.492344141,1.377950668,2.53250637,0.0
7.755132251,-1.329831481,-1.431565762,1.409249306,2.409111019,0.0
7.759874595,-1.01915741,-1.354431033,1.200033188,2.076835309,0.0
7.764616887,-0.6535813808,-1.293859482,0.6713380814,1.59747795,0.0
7.769359178,-0.3351858854,-1.272684693,-0.01679897308,1.316190758,0.0
7.774101522,0.03035640717,-1.206016898,-0.7451953888,1.417996628,0.0
7.778843814,0.3461990356,-1.057057381,-1.320608139,1.726623855,0.0
7.783586105,0.587831378,-0.8468500376,-1.64070797,1.937685051,0.0
7.788328397,0.7719512582,-0.5731196404,-1.674757004,1.931110015,0.0
7.793070741,0.8703449965,-0.2197580338,-1.391811371,1.656180213,0.0
7.797813033,0.9987846017,0.1380045414,-0.8850927353,1.341642681,0.0
7.802555324,1.086660504,0.4655823708,-0.252407074,1.208845452,0.0
7.807297668,1.134936333,0.7095727921,0.3008441925,1.371889666,0.0
7.81203996,1.201543212,0.8575484753,0.700876236,1.63411229,0.0
7.816782251,1.289083719,0.974060297,0.8905725479,1.844898306,0.0
7.821524595,1.361785173,0.9566094875,0.8677606583,1.876850855,0.0
7.826266887,1.407643199,0.884885788,0.7640447617,1.829821475,0.0
7.831009178,1.460099339,0.8290836811,0.5984449387,1.78252803,0.0
7.835751522,1.531052589,0.715788126,0.4664831161,1.753305784,0.0
7.840493814,1.615722418,0.5719931126,0.3870944977,1.757150307,0.0
7.845236105,1.707483649,0.4627895355,0.3840932846,1.810304454,0.0
7.849978449,1.799953938,0.3550560474,0.4526367188,1.88965049,0.0
7.854720741,1.884282827,0.3062674999,0.6286010742,2.009841005,0.0
7.859463033,1.908339381,0.2731659412,0.8354501724,2.101036843,0.0
7.864205376,1.879530787,0.2007365227,0.9799165726,2.129123675,0.0
7.868947668,1.785772443,0.1702256203,1.030981064,2.069029225,0.0
7.87368996,1.64364922,0.07392764091,1.079596519,1.967886354,0.0
7.878432303,1.498675585,-0.004487276077,1.152098656,1.890338583,0.0
7.883174595,1.375030041,-0.08678197861,1.210308075,1.833871413,0.0
7.887916887,1.380669713,-0.1301875114,1.240036011,1.860345923,0.0
7.89265923,1.075791121,-0.2211325169,1.193639755,1.622036371,0.0
7.897401522,0.8098224998,-0.2019679546,1.059314728,1.348610851,0.0
7.902143814,0.6303017139,-0.1424198151,0.9041538239,1.11133154,0.0
7.906886158,0.4890658855,-0.1094801426,0.6564178467,0.8258666548,0.0
7.911628449,0.4646185637,-0.09819245338,0.2563552856,0.539657484,0.0
7.916370741,0.4605914354,-0.01983618736,-0.2290477753,0.5147823113,0.0
7.921113085,0.4642761946,0.03486895561,-0.6468391418,0.796974971,0.0
7.925855376,0.5059247017,0.1401662827,-1.011626244,1.1397342,0.0
7.930597668,0.6015982628,0.28150177,-1.215959549,1.38554009,0.0
7.935340012,0.7412053347,0.4800543785,-1.322228432,1.590008044,0.0
7.940082303,0.8242208958,0.6611506939,-1.296971321,1.672900156,0.0
7.944824595,0.8317533731,0.8576593399,-1.197555542,1.691606483,0.0
7.949566939,0.8047636747,1.054801226,-1.083704948,1.713086867,0.0
7.95430923,0.7816444635,1.249941111,-1.091657639,1.834403785,0.0
7.959051522,0.7289535999,1.428823233,-1.185412407,1.994520432,0.0
7.963793866,0.6680152416,1.548629761,-1.324313164,2.144365607,0.0
7.968536158,0.5628530979,1.64789772,-1.357746124,2.208131573,0.0
7.973278449,0.4993133545,1.712585211,-1.431831837,2.287444937,0.0
7.978020793,0.3981702328,1.704789639,-1.517967224,2.31712575,0.0
7.982763085,0.1756712198,1.689318895,-1.499038696,2.265342297,0.0
7.987505376,0.03319239616,1.65685153,-1.365600586,2.147352716,0.0
7.99224772,-0.05755138397,1.581138134,-1.160738945,1.962300909,0.0
7.996990012,-0.1701682806,1.464862585,-0.9633932114,1.761506774,0.0
8.001732303,-0.2108219862,1.353809595,-0.7663469315,1.569883419,0.0
8.006474647,-0.1360377073,1.291170359,-0.5384492874,1.405544303,0.0
8.011216939,-0.1343516111,1.250627518,-0.2892103195,1.290644084,0.0
8.01595923,-0.1624004841,1.196434259,-0.1190738678,1.213263137,0.0
8.020701574,-0.1840301752,1.152874947,-0.02320098877,1.167701175,0.0
8.025443866,-0.2134387493,1.146255255,0.09178543091,1.16956478,0.0
8.030186158,-0.3055278063,1.169113636,0.2737703323,1.239001263,0.0
8.034928501,-0.4723217487,1.218625784,0.4629735947,1.386535677,0.0
8.039670793,-0.5968871117,1.224889517,0.5925168991,1.485834724,0.0
8.044413085,-0.6151478291,1.22607708,0.65046978,1.51815111,0.0
8.049155428,-0.6138448715,1.246073484,0.6153020859,1.519243664,0.0
8.05389772,-0.5720243454,1.205927134,0.5970077515,1.462152645,0.0
8.058640012,-0.5356781483,1.165343523,0.6552696228,1.440262089,0.0
8.063382355,-0.5431461334,1.17905736,0.7852582932,1.517173216,0.0
8.068124647,-0.4868798256,1.179955006,0.8960266113,1.559554253,0.0
8.072866939,-0.4218068123,1.134576797,0.9613227844,1.545744802,0.0
8.077609283,-0.3789932728,1.102648735,1.084060669,1.592060824,0.0
8.082351574,-0.3391964436,1.08409667,1.185297012,1.641721299,0.0
8.087093866,-0.3167748451,1.057173014,1.284243584,1.693293438,0.0
8.09183621,-0.337993145,1.007358074,1.392916679,1.751920812,0.0
8.096578501,-0.412112236,0.9418356419,1.475503922,1.79833331,0.0
8.101320793,-0.4671735764,0.8440394402,1.422045708,1.718391027,0.0
8.106063137,-0.460391283,0.7358577251,1.249306679,1.521254056,0.0
8.110805428,-0.4804420471,0.6561961174,1.019396782,1.304065836,0.0
8.11554772,-0.5537319183,0.5505445004,0.8134994507,1.127607929,0.0
8.120290064,-0.6683475971,0.4480831623,0.6409912109,1.028754958,0.0
8.125032355,-0.7381455898,0.3323776722,0.5878143311,1.000429666,0.0
8.129774647,-0.7870447636,0.2082805634,0.6442451477,1.038206176,0.0
8.134516991,-0.8195252419,0.04470419884,0.7528381348,1.113725884,0.0
8.139259283,-0.8783659935,-0.1609268188,0.9280071259,1.287874794,0.0
8.144001574,-0.9896275997,-0.3324229717,1.119615555,1.530818999,0.0
8.148743918,-1.191893816,-0.4416491985,1.27509594,1.80042621,0.0
8.15348621,-1.339769125,-0.5154924393,1.432761192,2.028181056,0.0
8.158228501,-1.270756721,-0.6450579166,1.532885551,2.093002741,0.0
8.162970845,-1.161749125,-0.8136588335,1.599569321,2.13783155,0.0
8.167713137,-1.010226965,-0.9233944416,1.637739182,2.13433958,0.0
8.172455428,-0.9404468536,-1.0175668,1.664259911,2.165558479,0.0
8.177197772,-0.9428629875,-1.148814201,1.595438004,2.180409848,0.0
8.181940064,-0.9390063286,-1.175632238,1.268556595,1.968014197,0.0
8.186682355,-0.9222588539,-1.231619239,0.8845272064,1.774777654,0.0
8.191424699,-0.988817215,-1.239734173,0.5100889206,1.665800411,0.0
8.196166991,-1.076487064,-1.170953631,0.240735054,1.608698285,0.0
8.200909283,-1.194633484,-1.099294662,0.1193504333,1.627833665,0.0
8.205651626,-1.369361639,-1.065580964,0.1099815369,1.738594268,0.0
8.210393918,-1.476074696,-1.036612034,0.1600294113,1.810792762,0.0
8.21513621,-1.562578678,-1.024789929,0.2600317001,1.886653919,0.0
8.219878553,-1.602315187,-1.078452349,0.3217020035,1.958051482,0.0
8.224620845,-1.587888002,-1.166543961,0.3380279541,1.99911881,0.0
8.229363137,-1.50472784,-1.260452032,0.2852735519,1.983513599,0.0
8.23410548,-1.522459507,-1.372026205,0.2018146515,2.059385348,0.0
8.238847772,-1.540242672,-1.472442269,0.1307678223,2.134838155,0.0
8.243590064,-1.492958069,-1.508897543,0.04588508606,2.123158268,0.0
8.248332408,-1.562119007,-1.536332011,-0.0503988266,2.191591176,0.0
8.253074699,-1.632930279,-1.535372138,-0.2729587555,2.257949375,0.0
8.257816991,-1.677127123,-1.460227728,-0.5405731201,2.288501628,0.0
8.262559335,-1.592362404,-1.284422874,-0.7792510986,2.189199036,0.0
8.267301626,-1.543716431,-1.08656764,-0.970032692,2.122416801,0.0
8.272043918,-1.614870787,-0.9357271194,-1.153745651,2.194201888,0.0
8.276786262,-1.593058825,-0.7430331707,-1.368823528,2.227916642,0.0
8.281528553,-1.583899498,-0.4676499367,-1.519741058,2.244336643,0.0
8.286270845,-1.625773907,-0.2363123894,-1.589910507,2.286219535,0.0
8.291013189,-1.706714392,-0.04409074783,-1.589049339,2.332358423,0.0
8.29575548,-1.685529947,0.1210129261,-1.522015572,2.274244211,0.0
8.300497772,-1.569597721,0.2781410217,-1.448680878,2.15399065,0.0
8.305240116,-1.466697574,0.4081811905,-1.275818825,1.986335151,0.0
8.309982408,-1.381287813,0.4941194057,-1.05358696,1.806143818,0.0
8.314724699,-1.322683573,0.5524363518,-0.793841362,1.63855481,0.0
8.319467043,-1.312116504,0.5493519306,-0.5227546692,1.515489923,0.0
8.324209335,-1.210577011,0.5087475777,-0.2808961868,1.342841564,0.0
8.328951626,-1.049133897,0.4018712044,-0.03947257996,1.124162125,0.0
8.33369397,-0.8946273327,0.2408204079,0.1393642426,0.9368964326,0.0
8.338436262,-0.7873494625,0.04962348938,0.313129425,0.8487824831,0.0
8.343178553,-0.7073611021,-0.1953690052,0.4771099091,0.8753071702,0.0
8.347920897,-0.6730418205,-0.4414360523,0.6744794846,1.050130304,0.0
8.352663189,-0.6813633442,-0.6553554535,0.8862628937,1.295842851,0.0
8.35740548,-0.7559541464,-0.8590221405,1.036082268,1.54364898,0.0
8.362147824,-0.6815160513,-1.038433552,1.14086628,1.686530236,0.0
8.366890116,-0.8243550062,-1.256050348,1.181577682,1.911373714,0.0
8.371632408,-1.043458581,-1.330298901,1.148736,2.044038985,0.0
8.376374751,-1.128515601,-1.309147954,1.044771194,2.019644195,0.0
8.381117043,-1.132411361,-1.30482173,0.8074827194,1.907077234,0.0
8.385859335,-1.131803274,-1.283611894,0.5302095413,1.791580392,0.0
8.390601678,-1.069322944,-1.223713636,0.2726755142,1.647810231,0.0
8.39534397,-0.9760549068,-1.112982035,0.03479099274,1.480750689,0.0
8.400086262,-0.8829711676,-1.02528739,-0.2074537277,1.368900787,0.0
8.404828605,-0.792335391,-0.8646895885,-0.4899778366,1.271047496,0.0
8.409570897,-0.7039321661,-0.6695423126,-0.7074613571,1.201794065,0.0
8.414313189,-0.6368334293,-0.506762743,-0.9723644257,1.268013356,0.0
8.419055533,-0.6174858809,-0.3906695843,-1.210512638,1.413949216,0.0
8.423797824,-0.5982052088,-0.2782104015,-1.433900356,1.578391818,0.0
8.428540116,-0.567271471,-0.1694648266,-1.630584717,1.734739683,0.0
8.43328246,-0.5753917694,-0.1362433434,-1.846087456,1.938472809,0.0
8.438024751,-0.6351425648,-0.125947237,-2.073304176,2.172063303,0.0
8.442767043,-0.7376251221,-0.1600902081,-2.312366486,2.432438788,0.0
8.447509387,-0.8622131348,-0.2194948196,-2.463046074,2.618813744,0.0
8.452251678,-1.043337107,-0.2731120586,-2.618915081,2.8322886,0.0
8.45699397,-1.26998353,-0.3688957691,-2.715619564,3.020518477,0.0
8.461736314,-1.56225419,-0.5096757412,-2.674426556,3.138943281,0.0
8.466478605,-1.717485905,-0.6794741154,-2.464333534,3.079672495,0.0
8.471220897,-1.773812056,-0.8766622543,-2.097193718,2.883256389,0.0
8.475963241,-1.835951805,-0.9248936176,-1.780889511,2.71987402,0.0
8.480705533,-1.877197742,-0.8676657677,-1.555837154,2.587922816,0.0
8.485447824,-1.890083313,-0.805532217,-1.371649265,2.470368149,0.0
8.490190168,-1.841174841,-0.6954119205,-1.290470123,2.353473109,0.0
8.49493246,-1.771125555,-0.5824015141,-1.271647453,2.256804046,0.0
8.499674751,-1.63154006,-0.4133963585,-1.298384666,2.12570512,0.0
8.504417095,-1.488954544,-0.2789151669,-1.341944695,2.023757611,0.0
8.509159387,-1.412222624,-0.104282856,-1.409526348,1.998002047,0.0
8.513901678,-1.329153061,0.008082151413,-1.450940132,1.967724688,0.0
8.518644022,-1.227780581,0.09678864479,-1.483042717,1.927752291,0.0
8.523386314,-1.105564117,0.2002196312,-1.424533367,1.814291937,0.0
8.528128605,-1.007735968,0.3088746071,-1.31136322,1.682441321,0.0
8.532870949,-0.9459707737,0.3798024654,-1.198565006,1.573425782,0.0
8.537613241,-0.8794031143,0.4585905075,-1.03830719,1.435874964,0.0
8.542355533,-0.8509159088,0.4950141907,-0.938211441,1.359903541,0.0
8.547097876,-0.8362314701,0.5323112011,-0.7881765366,1.266436157,0.0
8.551840168,-0.8061625957,0.6065900326,-0.6456184387,1.197778263,0.0
8.55658246,-0.7864573002,0.679610014,-0.4984521866,1.152752982,0.0
8.561324803,-0.7625417709,0.7300553322,-0.3706092834,1.118839569,0.0
8.566067095,-0.712695837,0.6983401775,-0.2907571793,1.039304622,0.0
8.570809387,-0.6751439571,0.6419365406,-0.2133817673,0.9557372357,0.0
8.57555173,-0.637804985,0.5775697231,-0.1169109344,0.8683606109,0.0
8.580294022,-0.5622420311,0.5339004993,-0.06346893311,0.7779422538,0.0
8.585036314,-0.5705134869,0.4676883221,-0.007515907288,0.7377496148,0.0
8.589778658,-0.6936058998,0.297090292,0.1204767227,0.7641115276,0.0
8.594520949,-0.886310339,0.1815178394,0.3564987183,0.9724125046,0.0
8.599263241,-1.151618481,0.1344130039,0.5642223358,1.289433529,0.0
8.604005585,-1.408875227,0.09525537491,0.6480579376,1.553699483,0.0
8.608747876,-1.598787546,0.0662958622,0.6032962799,1.710112032,0.0
8.613490168,-1.638032436,0.03815531731,0.4060459137,1.688040099,0.0
8.618232512,-1.486314058,0.03266167641,0.2069921494,1.501013662,0.0
8.622974803,-1.443127632,0.03330421448,-0.06816196442,1.445120267,0.0
8.627717095,-1.451441765,0.1311793327,-0.2880172729,1.485545409,0.0
8.632459439,-1.458922386,0.2306513786,-0.440820694,1.541420602,0.0
8.63720173,-1.422512293,0.3052313328,-0.423787117,1.515355704,0.0
8.641944022,-1.30376339,0.4290523529,-0.3159694672,1.408446521,0.0
8.646686366,-1.164719582,0.5347518921,-0.1914482117,1.29583321,0.0
8.651428658,-1.050486565,0.6531872749,-0.04291152954,1.237746758,0.0
8.656170949,-0.9987635612,0.7651433945,0.02934169769,1.258504668,0.0
8.660913293,-0.9581296444,0.7968521118,0.07581043243,1.248492261,0.0
8.665655585,-0.861178875,0.8705306053,0.134850502,1.231924205,0.0
8.670397876,-0.8273806572,0.9049406052,0.08690166473,1.22923885,0.0
8.67514022,-0.8830161095,0.8572342396,-0.1086006165,1.235460273,0.0
8.679882512,-0.937527895,0.7948560715,-0.3823547363,1.287225649,0.0
8.684624803,-0.9889390469,0.6823203564,-0.6053562164,1.345368966,0.0
8.689367095,-1.023542643,0.5652804375,-0.8113603592,1.423196103,0.0
8.694109439,-1.087554693,0.5225203037,-0.9312181473,1.524129232,0.0
