"Time (s)","Linear Acceleration x (m/s^2)","Linear Acceleration y (m/s^2)","Linear Acceleration z (m/s^2)","Absolute acceleration (m/s^2)"
4.420704300E-2,0.000000000E0,0.000000000E0,0.000000000E0,0.000000000E0
4.894928300E-2,7.952499390E-2,9.655237198E-3,-2.336301804E-1,2.469828120E-1
5.369152200E-2,1.595895290E-1,3.112578392E-2,-4.529190063E-1,4.812205924E-1
5.843376200E-2,1.767761707E-1,5.587458611E-2,-5.917387009E-1,6.201019868E-1
6.317600100E-2,1.467871666E-1,6.924796104E-2,-6.238822937E-1,6.446478642E-1
6.791824100E-2,5.827736855E-2,1.106655598E-1,-5.972213745E-1,6.101774234E-1
7.266048000E-2,-1.549577713E-2,1.568391323E-1,-5.137090683E-1,5.373412690E-1
7.740272000E-2,-2.332377434E-2,1.536853313E-1,-4.767093658E-1,5.014130024E-1
8.214490800E-2,-3.844165802E-2,1.548280716E-1,-4.750003815E-1,5.010737024E-1
8.688714700E-2,2.198219299E-3,1.293530464E-1,-5.184154510E-1,5.343141610E-1
9.162938700E-2,5.777597427E-2,1.073386669E-1,-5.328750610E-1,5.466401772E-1
9.637162600E-2,1.679570675E-1,7.722139359E-2,-5.375843048E-1,5.684800831E-1
1.011138660E-1,2.487330437E-1,8.120369911E-2,-5.059823990E-1,5.696317722E-1
1.058561050E-1,2.900428772E-1,6.355881691E-2,-4.440574646E-1,5.341831387E-1
1.105983450E-1,3.061959743E-1,2.320194244E-2,-3.861722946E-1,4.933795152E-1
1.153405850E-1,3.260996342E-1,7.121062279E-2,-3.401384354E-1,4.765564808E-1
1.200828240E-1,3.744928837E-1,1.240088940E-1,-3.091926575E-1,5.012217325E-1
1.248250640E-1,4.433429241E-1,1.840305328E-1,-2.604780197E-1,5.461400774E-1
1.295673030E-1,4.843527079E-1,2.466161251E-1,-1.921882629E-1,5.765009863E-1
1.343095430E-1,5.038020611E-1,2.983417511E-1,-1.639432907E-1,6.080310188E-1
1.390517830E-1,4.825811386E-1,2.990741730E-1,-1.804714203E-1,5.957347143E-1
1.437940220E-1,4.542782307E-1,3.013386726E-1,-1.895294189E-1,5.771439224E-1
1.485362620E-1,4.166291952E-1,2.706110477E-1,-1.548194885E-1,5.203645832E-1
1.532785010E-1,3.785312176E-1,2.217459679E-1,-1.813240051E-1,4.746952199E-1
1.580207410E-1,3.188641071E-1,1.160850525E-1,-2.184333801E-1,4.035631299E-1
1.627629800E-1,2.794611454E-1,3.590345383E-2,-2.105894089E-1,3.517605562E-1
1.675052200E-1,2.453486919E-1,-1.788330078E-2,-1.663026810E-1,2.969383350E-1
1.722474600E-1,1.607193947E-1,-4.217219353E-2,-1.096630096E-1,1.990858946E-1
1.769896990E-1,9.398198128E-2,-5.680990219E-2,-5.703067780E-2,1.237435897E-1
1.817319390E-1,5.091547966E-2,-8.788394928E-2,-4.284000397E-2,1.102326655E-1
1.864741780E-1,-9.398698807E-3,-1.096079350E-1,-9.140396118E-2,1.430276864E-1
1.912164180E-1,-4.077243805E-2,-1.248393059E-1,-1.731004715E-1,2.172809638E-1
1.959586580E-1,8.829593658E-3,-1.546185017E-1,-3.034763336E-1,3.407091543E-1
2.007008970E-1,6.702136993E-2,-1.519391537E-1,-4.977598190E-1,5.247306051E-1
2.054431370E-1,1.053662300E-1,-1.430466175E-1,-6.755752563E-1,6.985458497E-1
2.101853760E-1,1.406226158E-1,-1.395847797E-1,-7.702465057E-1,7.953227712E-1
2.149276160E-1,1.355381012E-1,-1.530039310E-1,-7.934956551E-1,8.193998623E-1
2.196698550E-1,1.097366810E-1,-1.502449512E-1,-7.495460510E-1,7.722920219E-1
2.244120950E-1,4.985141754E-2,-1.293008327E-1,-6.190266609E-1,6.343483870E-1
2.291543350E-1,2.918004990E-2,-1.139538288E-1,-4.995508194E-1,5.132133782E-1
2.338965740E-1,1.661562920E-2,-1.111006737E-1,-3.859167099E-1,4.019342556E-1
2.386388140E-1,-6.507396698E-3,-1.109917164E-1,-2.707920074E-1,2.927282334E-1
2.433810530E-1,7.115364075E-3,-9.010887146E-2,-1.353034973E-1,1.627183871E-1
2.481232930E-1,5.449891090E-2,-7.442402840E-2,-5.934524536E-2,1.096855753E-1
2.528655330E-1,2.056391239E-1,-4.940223694E-2,-1.577854156E-2,2.120777986E-1
2.576077720E-1,3.558702469E-1,-2.207660675E-2,8.754539490E-2,3.671446654E-1
2.623500120E-1,4.800577164E-1,7.583141327E-3,2.870473862E-1,5.593828000E-1
2.670922510E-1,5.606286526E-1,7.453250885E-2,5.084400177E-1,7.605069576E-1
2.718344910E-1,5.170005560E-1,1.144526005E-1,7.376365662E-1,9.080179934E-1
2.765767300E-1,4.434521198E-1,1.416137218E-1,9.185714722E-1,1.029795018E0
2.813189700E-1,3.052957058E-1,1.395244598E-1,1.066523552E0,1.118098846E0
2.860612100E-1,1.738892794E-1,1.248660088E-1,1.125936508E0,1.146107334E0
2.908034490E-1,6.955289841E-2,6.015920639E-2,1.044386864E0,1.048427707E0
2.955456890E-1,-2.298879623E-2,-4.897785187E-2,9.252929688E-1,9.268734502E-1
3.002879280E-1,-6.471753120E-2,-1.028766632E-1,8.277673721E-1,8.366425695E-1
3.050301680E-1,-1.320580244E-1,-1.729261875E-1,7.864980698E-1,8.160404413E-1
3.097724080E-1,-1.774413586E-1,-2.729399204E-1,8.145742416E-1,8.772188045E-1
3.145146470E-1,-2.037217617E-1,-2.824776173E-1,8.660869598E-1,9.334895728E-1
3.192568870E-1,-2.302216291E-1,-2.527158260E-1,9.077682495E-1,9.700054031E-1
3.239991260E-1,-3.275403976E-1,-2.597720623E-1,1.005782127E0,1.089202426E0
3.287413660E-1,-4.187765121E-1,-1.783061028E-1,1.088725090E0,1.180037777E0
3.334836050E-1,-3.623808622E-1,-9.915137291E-2,1.100397110E0,1.162765963E0
3.382258450E-1,-2.571731806E-1,2.743601799E-2,1.046587944E0,1.078071011E0
3.429680850E-1,-1.439450979E-1,1.611771584E-1,9.210252762E-1,9.460369057E-1
3.477103240E-1,6.036758423E-4,3.026378155E-1,7.056026459E-1,7.677663093E-1
3.524525640E-1,1.286454201E-1,4.031884670E-1,4.035062790E-1,5.847460143E-1
3.571948030E-1,2.568012476E-1,4.642512798E-1,1.570339203E-1,5.532953856E-1
3.619370430E-1,3.800896406E-1,4.518237114E-1,-2.099037170E-3,5.904381484E-1
3.666792830E-1,3.710931540E-1,3.532664776E-1,-7.072353363E-2,5.172128685E-1
3.714215220E-1,3.476440907E-1,1.581590176E-1,1.117801666E-2,3.820937538E-1
3.761637620E-1,3.578230143E-1,-9.676170349E-2,1.708297729E-1,4.081457437E-1
3.809060010E-1,3.876568079E-1,-3.424315453E-1,3.531064987E-1,6.262757886E-1
3.856482410E-1,4.091881514E-1,-5.791547298E-1,5.626668930E-1,9.052343215E-1
3.903904800E-1,4.607142210E-1,-8.051209450E-1,7.734708786E-1,1.207780828E0
3.951327200E-1,5.160384178E-1,-1.013897657E0,9.598236084E-1,1.488470849E0
3.998749600E-1,5.090228319E-1,-1.206184626E0,1.136475563E0,1.733655762E0
4.046171990E-1,4.405106306E-1,-1.373230219E0,1.258905411E0,1.914328520E0
4.093594390E-1,3.609340191E-1,-1.508708477E0,1.339838982E0,2.049790997E0
4.141016780E-1,2.842543125E-1,-1.570974231E0,1.325585365E0,2.075075206E0
4.188439180E-1,1.910369396E-1,-1.667764425E0,1.281235695E0,2.111752399E0
4.235861580E-1,8.594906330E-2,-1.728028178E0,1.181199074E0,2.094922404E0
4.283283970E-1,-5.733299255E-2,-1.790317535E0,1.080528259E0,2.091904699E0
4.330706370E-1,-1.800659895E-1,-1.895016432E0,9.412698746E-1,2.123558338E0
4.378128760E-1,-2.504858971E-1,-1.968915105E0,8.892230988E-1,2.174876455E0
4.425551160E-1,-3.103709221E-1,-1.975147367E0,8.973455429E-1,2.191521447E0
4.472973550E-1,-3.531348705E-1,-1.962516665E0,9.532432556E-1,2.210169361E0
4.520395950E-1,-3.361072540E-1,-1.905793548E0,1.013995171E0,2.184766198E0
4.567818350E-1,-2.737060785E-1,-1.853171229E0,1.058423996E0,2.151608695E0
4.615240740E-1,-1.993910074E-1,-1.783453226E0,1.027599335E0,2.067951299E0
4.662663140E-1,-1.134947538E-1,-1.732500434E0,9.057607651E-1,1.958275102E0
4.710085530E-1,9.913802147E-3,-1.647883058E0,7.506418228E-1,1.810823018E0
4.757507930E-1,1.281318665E-1,-1.572386026E0,6.501655579E-1,1.706320850E0
4.804930330E-1,2.041839361E-1,-1.470017552E0,4.924392700E-1,1.563694062E0
4.852352720E-1,3.318047523E-1,-1.378042698E0,2.755384445E-1,1.443958969E0
4.899775120E-1,4.825630188E-1,-1.278895617E0,-1.434993744E-2,1.366984633E0
4.947197510E-1,6.182992458E-1,-1.169496775E0,-3.412332535E-1,1.366183295E0
4.994619910E-1,7.294068933E-1,-1.039646864E0,-6.790323257E-1,1.440133646E0
5.042042300E-1,7.853899002E-1,-9.338567257E-1,-9.899940491E-1,1.571309612E0
5.089464700E-1,8.485212922E-1,-8.441957235E-1,-1.212987900E0,1.704111043E0
5.136887100E-1,9.496071935E-1,-7.486283779E-1,-1.391748428E0,1.843681631E0
5.184309490E-1,1.076426744E0,-6.517274380E-1,-1.474661827E0,1.938574397E0
5.231731890E-1,1.176442146E0,-4.942076206E-1,-1.500638485E0,1.969815514E0
5.279154280E-1,1.259480596E0,-3.550372124E-1,-1.441719532E0,1.947022856E0
5.326576680E-1,1.290240526E0,-2.010302544E-1,-1.315224648E0,1.853361716E0
5.373999080E-1,1.352257729E0,-1.012253761E-1,-1.157284737E0,1.782738204E0
5.421421470E-1,1.395389080E0,1.081299782E-2,-9.822540283E-1,1.706473141E0
5.468843870E-1,1.381931305E0,5.168843269E-2,-7.545852661E-1,1.575374479E0
5.516266260E-1,1.364653707E0,1.070909500E-1,-5.576257706E-1,1.478071281E0
5.563688660E-1,1.351026177E0,9.836602211E-2,-4.004249573E-1,1.412546549E0
5.611111050E-1,1.303096056E0,8.765125275E-2,-2.825565338E-1,1.336256064E0
5.658533450E-1,1.159477592E0,1.807856560E-2,-2.321310043E-1,1.182624168E0
5.705955850E-1,1.001319885E0,-7.184672356E-2,-1.608076096E-1,1.016691965E0
5.753378240E-1,8.640608191E-1,-1.486470699E-1,-1.803445816E-1,8.951096127E-1
5.800800640E-1,7.566856146E-1,-2.003836632E-1,-2.117309570E-1,8.108987174E-1
5.848223030E-1,6.978917718E-1,-2.793354988E-1,-2.098207474E-1,7.804524278E-1
5.895645430E-1,6.016932130E-1,-3.284609318E-1,-9.654331207E-2,6.922730078E-1
5.943067830E-1,5.490629077E-1,-3.908801079E-1,3.700542450E-2,6.750012865E-1
5.990490220E-1,5.542546511E-1,-4.334294796E-1,1.670417786E-1,7.231613152E-1
6.037912620E-1,5.671285391E-1,-4.516170025E-1,2.675523758E-1,7.727722631E-1
6.085335010E-1,5.831035972E-1,-4.172012806E-1,3.554611206E-1,8.002620332E-1
6.132757410E-1,6.140212417E-1,-3.423902988E-1,4.332332611E-1,8.257991647E-1
6.180179800E-1,7.169018388E-1,-2.560806274E-1,5.318746567E-1,9.286636553E-1
6.227602200E-1,8.012171984E-1,-1.347074509E-1,5.966758728E-1,1.008026385E0
6.275024600E-1,8.887258768E-1,-1.192474365E-2,6.707267761E-1,1.113485650E0
6.322446990E-1,9.677096605E-1,1.026580334E-1,7.041425705E-1,1.201173351E0
6.369869390E-1,1.061872363E0,2.278718948E-1,6.616640091E-1,1.271730230E0
6.417291780E-1,1.173335552E0,3.324956894E-1,6.199359894E-1,1.368060793E0
6.464714180E-1,1.313660502E0,4.807424545E-1,5.670661926E-1,1.509430783E0
6.512136580E-1,1.434948564E0,5.459725857E-1,5.055789948E-1,1.616407611E0
6.559558970E-1,1.456344604E0,6.140837669E-1,3.809223175E-1,1.625773752E0
6.606981370E-1,1.420859575E0,6.183025837E-1,2.196798325E-1,1.565055669E0
6.654403760E-1,1.309474587E0,6.183695793E-1,1.970005035E-2,1.448272324E0
6.701826160E-1,1.184177041E0,6.213600636E-1,-1.617479324E-1,1.347043424E0
6.749248550E-1,1.099342823E0,5.844402313E-1,-3.676433563E-1,1.298185913E0
6.796670950E-1,1.004607677E0,5.816764832E-1,-5.147027969E-1,1.269843725E0
6.844093350E-1,9.239518642E-1,5.869657993E-1,-6.628408432E-1,1.279677256E0
6.891515740E-1,8.434741497E-1,5.862495899E-1,-7.764158249E-1,1.287617473E0
6.938938140E-1,7.801622748E-1,5.586838722E-1,-8.676490784E-1,1.293675294E0
6.986360530E-1,7.340350747E-1,5.096933842E-1,-9.843425751E-1,1.329483036E0
7.033782930E-1,6.764869094E-1,4.730637074E-1,-1.131161690E0,1.400339451E0
7.081205330E-1,6.552336812E-1,4.610290527E-1,-1.224799156E0,1.463561388E0
7.128627720E-1,5.965617895E-1,4.808149338E-1,-1.341743469E0,1.545103397E0
7.176050120E-1,5.601032376E-1,4.873003960E-1,-1.410593987E0,1.594036608E0
7.223472510E-1,4.884286523E-1,4.710018635E-1,-1.398417950E0,1.554341682E0
7.270894910E-1,4.601162672E-1,5.103580952E-1,-1.312874794E0,1.481827449E0
7.318317300E-1,5.108247995E-1,5.692062378E-1,-1.247116089E0,1.462954632E0
7.365739700E-1,5.643976927E-1,6.377544403E-1,-1.212785721E0,1.481932754E0
7.413162100E-1,6.159092784E-1,6.610670090E-1,-1.147814751E0,1.460764365E0
7.460584490E-1,6.793639660E-1,7.414994240E-1,-1.114218712E0,1.500946412E0
7.508006890E-1,7.304863930E-1,8.191468716E-1,-1.152256012E0,1.591322056E0
7.555429280E-1,7.240822911E-1,8.891932964E-1,-1.116378784E0,1.600394162E0
7.602851680E-1,7.032866478E-1,9.374561310E-1,-1.095083237E0,1.603946197E0
7.650274080E-1,7.083460093E-1,1.009147167E0,-1.104930878E0,1.655597873E0
7.697696470E-1,7.008379102E-1,1.039853334E0,-1.131471634E0,1.688992834E0
7.745118870E-1,6.781270504E-1,1.053640127E0,-1.127080917E0,1.685326440E0
7.792541260E-1,6.162377000E-1,1.038841963E0,-1.127714157E0,1.652477155E0
7.839963660E-1,5.250698924E-1,1.024372816E0,-1.183318138E0,1.650842171E0
7.887386050E-1,4.239531159E-1,9.963014126E-1,-1.210354805E0,1.623980142E0
7.934808450E-1,3.486999273E-1,9.692015648E-1,-1.216185093E0,1.593753272E0
7.982230850E-1,2.825142145E-1,9.193971157E-1,-1.174794197E0,1.518303903E0
8.029653240E-1,2.303229570E-1,9.042100906E-1,-1.095974922E0,1.439376804E0
8.077075640E-1,1.137689352E-1,8.900985718E-1,-9.275598526E-1,1.290575886E0
8.124498030E-1,3.585064411E-2,8.673508167E-1,-7.223396301E-1,1.129317161E0
8.171920430E-1,2.240777016E-2,8.382406235E-1,-5.280857086E-1,9.909712239E-1
8.219342830E-1,2.059137821E-2,8.144907951E-1,-3.185052872E-1,8.747941919E-1
8.266765220E-1,-1.262772083E-2,8.100676537E-1,-8.886718750E-2,8.150254228E-1
8.314187620E-1,-8.156287670E-2,7.960822582E-1,1.441564560E-1,8.131300932E-1
8.361610010E-1,-9.038221836E-2,8.008534908E-1,4.354419708E-1,9.160485626E-1
8.409032410E-1,1.819252968E-2,8.358952999E-1,7.657651901E-1,1.133776101E0
8.456454800E-1,2.058546543E-1,8.961155415E-1,1.068385124E0,1.409555240E0
8.503877200E-1,4.367535114E-1,1.000050068E0,1.298395157E0,1.696078934E0
8.551299600E-1,5.894023180E-1,1.059242010E0,1.472943306E0,1.907603395E0
8.598721990E-1,6.382067800E-1,1.062166691E0,1.532847404E0,1.971072586E0
8.646144390E-1,5.931748748E-1,1.033208370E0,1.485832214E0,1.904487684E0
8.693566780E-1,5.330936909E-1,9.872071743E-1,1.337137222E0,1.745480690E0
8.740989180E-1,4.097923040E-1,9.531216621E-1,1.132389069E0,1.535798046E0
8.788411580E-1,2.966221571E-1,9.667274952E-1,9.169635773E-1,1.365052730E0
8.835833970E-1,1.810911894E-1,9.351468086E-1,7.907552719E-1,1.237977170E0
8.883256370E-1,7.496631145E-2,9.371213913E-1,7.056350708E-1,1.175473225E0
8.930678760E-1,-3.824055195E-2,9.296388626E-1,6.804456711E-1,1.152691228E0
8.978101160E-1,-1.393629313E-1,9.125077724E-1,6.934976578E-1,1.154569817E0
9.025523550E-1,-2.282768488E-1,9.285397530E-1,7.041549683E-1,1.187489205E0
9.072945950E-1,-1.789846420E-1,8.965566158E-1,7.029008865E-1,1.153221108E0
9.120368350E-1,-1.089390516E-1,9.168801308E-1,6.350078583E-1,1.120612275E0
9.167790740E-1,2.683269978E-2,8.989338875E-1,5.245752335E-1,1.041144228E0
9.215213140E-1,1.518880129E-1,9.287865162E-1,4.956331253E-1,1.063657161E0
9.262635530E-1,2.543920279E-1,9.562201500E-1,4.858169556E-1,1.102311387E0
9.310057930E-1,2.915595770E-1,9.575071335E-1,5.069074631E-1,1.121954577E0
9.357480330E-1,3.755589724E-1,9.254937172E-1,5.849494934E-1,1.157475301E0
9.404902720E-1,4.443795681E-1,9.126446247E-1,7.054090500E-1,1.236121086E0
9.452325120E-1,5.410799980E-1,8.778872490E-1,8.920097351E-1,1.363500991E0
9.499747510E-1,6.516433358E-1,8.448550701E-1,1.099308968E0,1.531959312E0
9.547169910E-1,6.191470623E-1,7.656812668E-1,1.224901199E0,1.571621403E0
9.594592300E-1,5.207051039E-1,6.167385578E-1,1.271635056E0,1.506172622E0
9.642014700E-1,4.615757465E-1,4.676361084E-1,1.256570816E0,1.417993623E0
9.689437100E-1,5.343028307E-1,3.568713665E-1,1.101307869E0,1.275035572E0
9.736859490E-1,6.521676779E-1,2.610108852E-1,8.420944214E-1,1.096618610E0
9.784281890E-1,7.644963264E-1,1.854095459E-1,5.744915009E-1,9.741005171E-1
9.831704280E-1,8.186095953E-1,1.637554169E-1,4.460620880E-1,9.465246391E-1
9.879126680E-1,8.624845743E-1,1.768882275E-1,4.632205963E-1,9.948579832E-1
9.926549080E-1,8.868365884E-1,1.628317833E-1,5.490188599E-1,1.055658578E0
9.973971470E-1,9.422759414E-1,1.859221458E-1,6.508255005E-1,1.160183100E0
1.002139387E0,9.238924384E-1,1.673924923E-1,7.495164871E-1,1.201404365E0
1.006881626E0,8.582540154E-1,1.478643417E-1,8.260755539E-1,1.200360212E0
1.011623866E0,7.239701748E-1,1.082477570E-1,8.615360260E-1,1.130528511E0
1.016366105E0,5.550045967E-1,3.449964523E-2,9.109172821E-1,1.067235036E0
1.021108345E0,3.877371550E-1,-8.747982979E-2,9.885368347E-1,1.065456661E0
1.025850585E0,2.726188898E-1,-2.166597843E-1,1.037104607E0,1.094005707E0
1.030592824E0,2.045565844E-1,-3.647191525E-1,9.828586578E-1,1.068117315E0
1.035335064E0,1.349711418E-1,-5.339152813E-1,8.809671402E-1,1.038934954E0
1.040077303E0,-3.877282143E-3,-7.267140150E-1,8.435068130E-1,1.113387640E0
1.044819543E0,-2.292367220E-1,-9.624882936E-1,8.558101654E-1,1.308183561E0
1.049561783E0,-4.865238667E-1,-1.208151579E0,8.985710144E-1,1.582329162E0
1.054304022E0,-8.000799417E-1,-1.445104599E0,9.787826538E-1,1.920018411E0
1.059046262E0,-1.117998362E0,-1.635944247E0,1.117709160E0,2.274974216E0
1.063788501E0,-1.450227261E0,-1.829297304E0,1.298462868E0,2.671234462E0
1.068530741E0,-1.779836178E0,-1.968645930E0,1.568677902E0,3.082877549E0
1.073272980E0,-1.934457064E0,-2.050182819E0,1.904391289E0,3.401775993E0
1.078015220E0,-1.880588412E0,-2.043802261E0,2.238862038E0,3.567386114E0
1.082757460E0,-1.630025744E0,-2.024161816E0,2.457962036E0,3.577120679E0
1.087499699E0,-1.349380136E0,-1.936526060E0,2.595777512E0,3.508421414E0
1.092241939E0,-1.047548056E0,-1.857158184E0,2.583631516E0,3.349857498E0
1.096984178E0,-7.624225616E-1,-1.728368402E0,2.412630081E0,3.064201267E0
1.101726418E0,-4.938182831E-1,-1.623835325E0,2.207346916E0,2.784434964E0
1.106468658E0,-1.774398088E-1,-1.497614026E0,1.958263397E0,2.471665064E0
1.111210897E0,4.833233356E-2,-1.351531863E0,1.689294815E0,2.163952718E0
1.115953137E0,2.077921629E-1,-1.189717054E0,1.352730751E0,1.813417971E0
1.120695376E0,3.011240959E-1,-1.049784899E0,9.916353226E-1,1.475149032E0
1.125437616E0,2.901277542E-1,-9.287682176E-1,6.274099350E-1,1.157768432E0
1.130179855E0,1.890861988E-1,-8.479782343E-1,4.172811508E-1,9.638175321E-1
1.134922095E0,-3.517818451E-2,-8.313502073E-1,3.367509842E-1,8.976535508E-1
1.139664335E0,-2.866640091E-1,-8.289226890E-1,3.185977936E-1,9.331632400E-1
1.144406574E0,-5.388127565E-1,-8.456790447E-1,3.006601334E-1,1.046847051E0
1.149148814E0,-8.016018867E-1,-8.627990484E-1,2.090148926E-1,1.196108276E0
1.153891053E0,-1.085154057E0,-8.660845757E-1,7.486820221E-2,1.390419745E0
1.158633293E0,-1.366323829E0,-8.913571239E-1,-6.391525269E-3,1.631379532E0
1.163375533E0,-1.535660028E0,-8.836134672E-1,-7.318496704E-2,1.773240120E0
1.168117772E0,-1.569899321E0,-8.475567102E-1,-1.375446320E-1,1.789372734E0
1.172860012E0,-1.522108078E0,-8.309255838E-1,-1.685171127E-1,1.742311208E0
1.177602251E0,-1.383242130E0,-8.264706731E-1,-1.758031845E-1,1.620900776E0
1.182344491E0,-1.282825708E0,-8.533702493E-1,-1.810121536E-1,1.551337481E0
1.187086730E0,-1.173207045E0,-8.805797696E-1,-1.341018677E-1,1.473030485E0
1.191828970E0,-1.042542100E0,-9.059166312E-1,-1.618099213E-2,1.381246103E0
1.196571210E0,-8.981927633E-1,-8.988153934E-1,1.820526123E-1,1.283652019E0
1.201313449E0,-7.664099932E-1,-8.576240540E-1,4.484758377E-1,1.234517668E0
1.206055689E0,-6.446382999E-1,-8.186492324E-1,6.803903580E-1,1.244458172E0
1.210797980E0,-5.853691101E-1,-7.869762182E-1,8.946924210E-1,1.327577904E0
1.215540168E0,-4.810373783E-1,-7.031490207E-1,1.010443687E0,1.321670137E0
1.220282408E0,-4.893616438E-1,-6.841918230E-1,1.066191673E0,1.358071409E0
1.225024647E0,-4.451644421E-1,-6.390203834E-1,1.145662308E0,1.385301611E0
1.229766887E0,-3.553364277E-1,-5.747699738E-1,1.232161522E0,1.405292324E0
1.234509126E0,-3.121310472E-1,-5.748785734E-1,1.383060455E0,1.529956662E0
1.239251366E0,-2.785872221E-1,-5.651882887E-1,1.576830864E0,1.698070733E0
1.243993605E0,-2.343841791E-1,-5.696033239E-1,1.720513344E0,1.827443585E0
1.248735845E0,-2.783983946E-1,-6.617504358E-1,1.726239204E0,1.869577786E0
1.253478085E0,-3.903082609E-1,-7.980604768E-1,1.632770538E0,1.858811635E0
1.258220324E0,-4.455531836E-1,-9.183208346E-1,1.483366013E0,1.800612541E0
1.262962564E0,-3.729170561E-1,-1.076866984E0,1.263788223E0,1.701725685E0
1.267704803E0,1.878097057E-1,-1.174266815E0,7.356014252E-1,1.398314877E0
1.272447043E0,1.207060814E0,-1.318442702E0,-7.406997681E-2,1.789070521E0
1.277189283E0,1.068186760E0,-1.575348139E0,-3.701982498E-1,1.939018168E0
1.281931522E0,5.731964111E-2,-1.804869533E0,-3.027534485E-1,1.830983130E0
1.286673762E0,-1.060895801E0,-1.925053835E0,-1.306972504E-1,2.201911428E0
1.291416001E0,-1.477322221E0,-1.898886919E0,-9.036731720E-2,2.407575280E0
1.296158241E0,-1.321411371E0,-1.765263438E0,-1.523160934E-1,2.210312921E0
1.300900480E0,-8.532140255E-1,-1.567222118E0,-3.063659668E-1,1.810530156E0
1.305642720E0,-5.482434034E-1,-1.433437347E0,-6.046600342E-1,1.649523330E0
1.310384960E0,-5.509834290E-1,-1.394668341E0,-9.730043411E-1,1.787573766E0
1.315127199E0,-7.581102848E-1,-1.341078520E0,-1.342335701E0,2.043303192E0
1.319869439E0,-9.776732922E-1,-1.270691872E0,-1.655648232E0,2.304706915E0
1.324611678E0,-1.083920121E0,-1.190829515E0,-1.927565575E0,2.511666142E0
1.329353918E0,-1.048237205E0,-1.051389694E0,-2.112883091E0,2.582343215E0
1.334096158E0,-9.111615419E-1,-8.906393051E-1,-2.278658390E0,2.610696801E0
1.338838397E0,-7.941961288E-1,-7.609790564E-1,-2.350973606E0,2.595556494E0
1.343580637E0,-6.733787060E-1,-6.050945520E-1,-2.349242687E0,2.517641655E0
1.348322876E0,-5.373153687E-1,-4.592036009E-1,-2.226042271E0,2.335559878E0
1.353065116E0,-4.318530560E-1,-3.738648891E-1,-2.034263134E0,2.112935994E0
1.357807355E0,-4.640296698E-1,-4.039098024E-1,-1.881425858E0,1.979451924E0
1.362549595E0,-5.397677422E-1,-4.655069113E-1,-1.812601089E0,1.947708554E0
1.367291835E0,-6.057968140E-1,-5.533751249E-1,-1.796452522E0,1.974957081E0
1.372034074E0,-6.407492161E-1,-6.480188370E-1,-1.794705868E0,2.012823172E0
1.376776314E0,-6.307089329E-1,-7.325352430E-1,-1.769233227E0,2.016082303E0
1.381518553E0,-6.143473387E-1,-7.781907320E-1,-1.693971634E0,1.962789689E0
1.386260793E0,-6.487135887E-1,-8.400107622E-1,-1.580982685E0,1.904193701E0
1.391003033E0,-7.618539333E-1,-8.319996595E-1,-1.463741302E0,1.848021496E0
1.395745272E0,-9.480357170E-1,-8.905500174E-1,-1.303925514E0,1.841758073E0
1.400487512E0,-1.094669580E0,-9.322173595E-1,-1.137360573E0,1.833281148E0
1.405229751E0,-1.134802580E0,-9.213474989E-1,-1.045110703E0,1.796918053E0
1.409971991E0,-1.161657095E0,-9.106541872E-1,-1.026864052E0,1.798106792E0
1.414714230E0,-1.175312996E0,-9.238612652E-1,-1.072853088E0,1.840079896E0
1.419456470E0,-1.221422672E0,-9.607475996E-1,-1.154307365E0,1.935803396E0
1.424198710E0,-1.200298309E0,-8.969532251E-1,-1.268887520E0,1.963496029E0
1.428940949E0,-1.105679750E0,-7.900575399E-1,-1.337883949E0,1.907000810E0
1.433683189E0,-1.079159737E0,-6.544356346E-1,-1.418849945E0,1.898948894E0
1.438425428E0,-1.013571501E0,-5.307387114E-1,-1.526157856E0,1.907398377E0
1.443167668E0,-9.476745129E-1,-3.996895552E-1,-1.616902351E0,1.916301630E0
1.447909908E0,-8.769241571E-1,-2.875761986E-1,-1.703122139E0,1.937090877E0
1.452652147E0,-7.658374310E-1,-1.417336464E-1,-1.696640015E0,1.866864413E0
1.457394387E0,-6.839656830E-1,-4.345965385E-2,-1.659842968E0,1.795766264E0
1.462136626E0,-6.122343540E-1,-2.216577530E-3,-1.573750019E0,1.688645889E0
1.466878866E0,-5.672706366E-1,-1.065325737E-2,-1.459992409E0,1.566361165E0
1.471621105E0,-5.582969189E-1,-6.879878044E-2,-1.289928436E0,1.407246991E0
1.476363345E0,-5.729382038E-1,-1.478991508E-1,-1.142407417E0,1.286556276E0
1.481105585E0,-5.941723585E-1,-2.696137428E-1,-9.528083801E-1,1.154805685E0
1.485847824E0,-5.929421186E-1,-4.029053450E-1,-7.521705627E-1,1.039073447E0
1.490590064E0,-6.047556400E-1,-5.214651823E-1,-5.690937042E-1,9.805727738E-1
1.495332303E0,-5.339132547E-1,-5.798978806E-1,-4.536094666E-1,9.094539370E-1
1.500074491E0,-4.255744219E-1,-5.878235102E-1,-3.481655121E-1,8.049032808E-1
1.504816730E0,-3.749037981E-1,-6.216363907E-1,-2.240438461E-1,7.597238347E-1
1.509558970E0,-3.836330175E-1,-5.857080221E-1,-1.027154922E-1,7.076571569E-1
1.514301210E0,-3.605545759E-1,-5.851659775E-1,1.586627960E-2,6.875104088E-1
1.519043449E0,-3.937482834E-1,-5.843538046E-1,1.747884750E-1,7.259876656E-1
1.523785689E0,-4.707036018E-1,-5.642458200E-1,2.904911041E-1,7.901394230E-1
1.528527928E0,-5.026098490E-1,-5.847361088E-1,3.345794678E-1,8.405215033E-1
1.533270168E0,-5.300346613E-1,-5.741535425E-1,3.741407394E-1,8.663546188E-1
1.538012408E0,-5.386403799E-1,-5.659927130E-1,3.614568710E-1,8.608903993E-1
1.542754647E0,-5.092467070E-1,-5.459669828E-1,3.182067871E-1,8.115834611E-1
1.547496887E0,-4.468386173E-1,-4.926756620E-1,2.683439255E-1,7.172186000E-1
1.552239126E0,-3.875449896E-1,-4.420975447E-1,1.927728653E-1,6.187105426E-1
1.556981366E0,-3.387081623E-1,-3.940994740E-1,8.195972443E-2,5.260751002E-1
1.561723605E0,-2.908935547E-1,-3.080224991E-1,-5.687236786E-2,4.274709187E-1
1.566465845E0,-2.515230179E-1,-2.457346916E-1,-2.022886276E-1,4.056723506E-1
1.571208085E0,-1.827894449E-1,-1.687514782E-1,-3.663320541E-1,4.428184915E-1
1.575950324E0,-1.066823006E-1,-7.926988602E-2,-5.061321259E-1,5.232920379E-1
1.580692564E0,-6.889224052E-3,-8.280754089E-3,-6.146945953E-1,6.147889702E-1
1.585434803E0,5.891001225E-2,5.863642693E-2,-7.017364502E-1,7.066418227E-1
1.590177043E0,1.263633966E-1,9.518599510E-2,-7.172412872E-1,7.344815490E-1
1.594919283E0,1.286911964E-1,1.157279015E-1,-7.043638229E-1,7.253156322E-1
1.599661522E0,1.353893280E-1,1.200442314E-1,-6.798162460E-1,7.034849082E-1
1.604403762E0,9.176695347E-2,1.269419193E-1,-5.814428329E-1,6.021720623E-1
1.609146001E0,5.248546600E-3,1.384649277E-1,-4.356107712E-1,4.571179579E-1
1.613888241E0,-1.070673466E-1,1.160821915E-1,-3.664417267E-1,3.990213415E-1
1.618630480E0,-1.923809052E-1,6.454157829E-2,-3.449831009E-1,4.002366399E-1
1.623372720E0,-2.745584249E-1,3.897547722E-2,-3.758897781E-1,4.671129862E-1
1.628114960E0,-3.157604933E-1,-1.070165634E-2,-4.495534897E-1,5.494702491E-1
1.632857199E0,-3.428208828E-1,-6.505513191E-2,-5.325908661E-1,6.367192148E-1
1.637599439E0,-3.825670481E-1,-1.407444477E-1,-5.749607086E-1,7.048023569E-1
1.642341678E0,-4.306890965E-1,-1.518454552E-1,-5.601577759E-1,7.227218510E-1
1.647083918E0,-5.398244858E-1,-1.510753632E-1,-4.907655716E-1,7.450403258E-1
1.651826105E0,-6.884491444E-1,-1.292843819E-1,-3.024215698E-1,7.629780349E-1
1.656568345E0,-8.431253433E-1,-9.646201134E-2,-9.326076508E-2,8.537346394E-1
1.661310585E0,-9.967384338E-1,-3.630375862E-2,1.988134384E-1,1.017021264E0
1.666052824E0,-1.187642813E0,5.312204361E-3,4.447517395E-1,1.268198636E0
1.670795064E0,-1.296278954E0,3.777551651E-2,6.543226242E-1,1.452550933E0
1.675537303E0,-1.360736966E0,4.678940773E-2,7.942886353E-1,1.576289560E0
1.680279543E0,-1.414528370E0,6.819176674E-2,8.839797974E-1,1.669419333E0
1.685021783E0,-1.433990002E0,8.316063881E-2,9.138841629E-1,1.702476807E0
1.689764022E0,-1.398090005E0,1.135346889E-1,8.792495728E-1,1.655483494E0
1.694506262E0,-1.340835094E0,1.502778530E-1,7.609405518E-1,1.549016690E0
1.699248501E0,-1.262845874E0,2.155468464E-1,6.162023544E-1,1.421599622E0
1.703990741E0,-1.217159271E0,2.955355644E-1,4.639692307E-1,1.335696600E0
1.708732980E0,-1.189941883E0,3.644046783E-1,3.589515686E-1,1.295221480E0
1.713475220E0,-1.105371833E0,4.679183960E-1,2.984313965E-1,1.236873402E0
1.718217460E0,-9.737492800E-1,5.249993801E-1,2.988739014E-1,1.145922169E0
1.722959699E0,-7.669948339E-1,5.169420242E-1,4.531202316E-1,1.029965085E0
1.727701939E0,-4.639655352E-1,5.275235176E-1,7.989778519E-1,1.063912913E0
1.732444178E0,-8.348953724E-2,5.349705219E-1,1.278862000E0,1.388759150E0
1.737186418E0,2.727856636E-1,5.891673565E-1,1.885610580E0,1.994256115E0
1.741928658E0,4.803435802E-1,6.489162445E-1,2.621779442E0,2.743273535E0
1.746670897E0,5.730296373E-1,6.969320774E-1,3.377748489E0,3.496178220E0
1.751413137E0,5.704447627E-1,6.706390381E-1,4.077578545E0,4.171547762E0
1.756155376E0,5.040394068E-1,5.985963345E-1,4.643013954E0,4.708497836E0
1.760897616E0,4.071431160E-1,4.902484417E-1,5.026924133E0,5.067156529E0
1.765639855E0,3.386644125E-1,3.146142960E-1,5.251386642E0,5.271692082E0
1.770382095E0,2.349278927E-1,1.149010658E-1,5.300114632E0,5.306562774E0
1.775124335E0,8.443927765E-2,-8.959460258E-2,5.168731689E0,5.170197720E0
1.779866522E0,-1.796846390E-1,-3.558185101E-1,4.850397110E0,4.866748967E0
1.784608762E0,-4.264576435E-1,-5.852580070E-1,4.428957939E0,4.487767985E0
1.789351001E0,-6.855045557E-1,-8.013989925E-1,3.880574226E0,4.021319829E0
1.794093241E0,-8.577487469E-1,-9.773434401E-1,3.174237251E0,3.430264602E0
1.798835480E0,-9.924098253E-1,-1.088724017E0,2.429471016E0,2.841219221E0
1.803577720E0,-1.066910505E0,-1.151963830E0,1.732094765E0,2.337834675E0
1.808319960E0,-1.152026892E0,-1.150327682E0,1.067475319E0,1.946772532E0
1.813062199E0,-1.205981135E0,-1.100821018E0,5.404891968E-1,1.719978484E0
1.817804439E0,-1.191727757E0,-9.965801239E-1,4.802131653E-2,1.554249992E0
1.822546678E0,-1.162810683E0,-8.762415648E-1,-3.551273346E-1,1.498680549E0
1.827288918E0,-1.160679936E0,-7.307258844E-1,-6.620244980E-1,1.522962465E0
1.832031158E0,-1.066767812E0,-5.464100838E-1,-8.466243744E-1,1.467423039E0
1.836773397E0,-9.728091955E-1,-3.695187569E-1,-9.688692093E-1,1.421833108E0
1.841515637E0,-8.816261292E-1,-1.957991123E-1,-1.012160301E0,1.356491946E0
1.846257876E0,-7.764831781E-1,-4.008603096E-2,-9.956912994E-1,1.263302885E0
1.851000116E0,-6.884062290E-1,5.674076080E-2,-9.887952805E-1,1.206166969E0
1.855742355E0,-6.316702366E-1,9.938669205E-2,-9.794750214E-1,1.169724891E0
1.860484595E0,-5.606924295E-1,7.360911369E-2,-1.008314133E0,1.156067339E0
1.865226835E0,-4.111398458E-1,-1.789665222E-2,-1.046638489E0,1.124637003E0
1.869969074E0,-2.716220617E-1,-1.341619492E-1,-1.094511986E0,1.135664766E0
1.874711314E0,-2.042906284E-1,-2.677555084E-1,-1.137671471E0,1.186475473E0
1.879453553E0,-1.943855286E-1,-3.970036507E-1,-1.135545731E0,1.218549030E0
1.884195793E0,-2.104039192E-1,-5.027971268E-1,-1.104925156E0,1.232044788E0
1.888938033E0,-2.276642323E-1,-5.661532879E-1,-1.021857262E0,1.190190242E0
1.893680272E0,-2.739782333E-1,-6.350463629E-1,-9.316625595E-1,1.160320249E0
1.898422512E0,-3.388351202E-1,-6.904425621E-1,-8.389453888E-1,1.138134234E0
1.903164751E0,-4.191374779E-1,-6.656078100E-1,-7.913160324E-1,1.115746855E0
1.907906991E0,-4.714585543E-1,-6.729052067E-1,-8.124771118E-1,1.155505795E0
1.912649230E0,-5.099971294E-1,-6.596843004E-1,-8.831129074E-1,1.214565295E0
1.917391470E0,-5.323832035E-1,-6.521739960E-1,-1.012661934E0,1.316908117E0
1.922133710E0,-5.172846317E-1,-6.429693699E-1,-1.177168846E0,1.437608950E0
1.926875949E0,-4.292082787E-1,-6.484901905E-1,-1.393383026E0,1.595705340E0
1.931618189E0,-4.023436308E-1,-6.517248154E-1,-1.608756065E0,1.781774876E0
1.936360428E0,-3.631194830E-1,-6.359001398E-1,-1.811487675E0,1.953896707E0
1.941102668E0,-2.980487347E-1,-6.321164370E-1,-1.973119259E0,2.093228093E0
1.945844908E0,-1.838290691E-1,-5.808219910E-1,-2.029335976E0,2.118809056E0
1.950587147E0,-7.816350460E-2,-5.062923431E-1,-2.047255993E0,2.110378774E0
1.955329387E0,7.054805756E-3,-4.253966808E-1,-2.110535145E0,2.152991106E0
1.960071574E0,6.700253487E-2,-3.550789356E-1,-2.152160645E0,2.182284544E0
1.964813814E0,7.481384277E-2,-2.859697342E-1,-2.227207184E0,2.246737110E0
1.969556105E0,1.065504551E-1,-1.848316193E-1,-2.216239929E0,2.226484932E0
1.974298293E0,1.666746140E-1,-8.767437935E-2,-2.246079922E0,2.253961455E0
1.979040533E0,2.573412657E-1,-2.793240547E-2,-2.278453827E0,2.293110679E0
1.983782772E0,3.450102806E-1,3.523850441E-2,-2.358787060E0,2.384145599E0
1.988525012E0,4.486262798E-1,2.326822281E-2,-2.463187218E0,2.503816730E0
1.993267251E0,5.298119783E-1,2.031040192E-2,-2.577407837E0,2.631376902E0
1.998009491E0,5.717306137E-1,2.433037758E-2,-2.658579350E0,2.719469069E0
2.002751730E0,6.054974794E-1,-1.934361458E-2,-2.682982922E0,2.750526991E0
2.007493970E0,5.979874134E-1,-2.430152893E-2,-2.648386955E0,2.715167210E0
2.012236210E0,5.903364420E-1,-7.641005516E-2,-2.585939407E0,2.653567077E0
2.016978449E0,6.042062044E-1,-9.651803970E-2,-2.440794945E0,2.516318905E0
2.021720689E0,6.326431036E-1,-1.275241375E-1,-2.287174225E0,2.376481777E0
2.026462928E0,6.399822235E-1,-1.885023117E-1,-2.065337181E0,2.170421166E0
2.031205168E0,6.815239191E-1,-2.197062969E-1,-1.830289841E0,1.965376964E0
2.035947408E0,7.075333595E-1,-2.261154652E-1,-1.569963455E0,1.736812284E0
2.040689647E0,6.945835352E-1,-2.700300217E-1,-1.279500008E0,1.480703471E0
2.045431887E0,7.196435928E-1,-2.869894505E-1,-9.683914185E-1,1.240174095E0
2.050174126E0,7.472491264E-1,-2.701745033E-1,-6.341133118E-1,1.016599829E0
2.054916366E0,8.447769284E-1,-2.413105965E-1,-3.076238632E-1,9.308658894E-1
2.059658605E0,9.171174765E-1,-2.339589596E-1,-1.025390625E-2,9.465444538E-1
2.064400845E0,9.649516344E-1,-2.314212322E-1,2.653694153E-1,1.027184682E0
2.069143085E0,1.000834227E0,-2.528924942E-1,5.385303497E-1,1.164318986E0
2.073885324E0,1.034797549E0,-2.671535015E-1,7.567272186E-1,1.309508704E0
2.078627564E0,1.136280060E0,-2.334296703E-1,8.460054398E-1,1.435739179E0
2.083369803E0,1.214546680E0,-1.991043091E-1,8.686323166E-1,1.506415702E0
2.088112043E0,1.231261969E0,-1.661181450E-1,7.409801483E-1,1.446600447E0
2.092854283E0,1.210358024E0,-1.505637169E-1,5.443849564E-1,1.335661244E0
2.097596522E0,1.096503973E0,-1.495060921E-1,3.814563751E-1,1.170547735E0
2.102338762E0,9.253407121E-1,-1.101074219E-1,2.830123901E-1,9.738968584E-1
2.107081001E0,7.776871324E-1,-8.263373375E-2,2.918071747E-1,8.347317156E-1
2.111823241E0,6.149933338E-1,-3.860640526E-2,2.977390289E-1,6.843652420E-1
2.116565480E0,4.468777180E-1,-4.758787155E-2,3.773412704E-1,5.868140546E-1
2.121307720E0,2.757456303E-1,-7.164072990E-2,4.804201126E-1,5.585441177E-1
2.126049960E0,1.518044472E-1,-8.722615242E-2,6.261663437E-1,6.501824989E-1
2.130792199E0,1.467878819E-1,-5.654954910E-2,7.716608047E-1,7.875309082E-1
2.135534439E0,1.746249199E-1,-6.374549866E-2,9.146900177E-1,9.333890827E-1
2.140276678E0,2.400541306E-1,-6.405353546E-3,1.019566536E0,1.047465004E0
2.145018918E0,2.926844358E-1,3.379106522E-2,1.067345619E0,1.107263603E0
2.149761158E0,3.083869219E-1,9.236121178E-2,1.115542412E0,1.161063288E0
2.154503397E0,2.917234898E-1,1.498816013E-1,1.159409523E0,1.204905611E0
2.159245637E0,2.879123688E-1,2.180731297E-1,1.108206749E0,1.165577805E0
2.163987928E0,2.633149624E-1,2.800757885E-1,1.019477844E0,1.089546829E0
2.168730116E0,2.272814512E-1,3.120505810E-1,9.147443771E-1,9.928694268E-1
2.173472408E0,2.368968725E-1,3.570911884E-1,8.130855560E-1,9.190986707E-1
2.178214647E0,2.344437838E-1,3.865582943E-1,7.000846863E-1,8.333725281E-1
2.182956887E0,2.243114710E-1,4.484872818E-1,5.541086197E-1,7.473237855E-1
2.187699126E0,1.607952118E-1,5.214796066E-1,4.825963974E-1,7.284884097E-1
2.192441366E0,1.106257439E-1,5.911169052E-1,4.471158981E-1,7.493796616E-1
2.197183605E0,9.261906147E-2,6.764895916E-1,4.403648376E-1,8.124885527E-1
2.201925845E0,6.593513489E-2,7.679007053E-1,4.527101517E-1,8.938486542E-1
2.206668085E0,3.498673439E-2,8.510868549E-1,4.171066284E-1,9.484465434E-1
2.211410324E0,2.806544304E-2,9.380939007E-1,3.837032318E-1,1.013921104E0
2.216152564E0,3.495812416E-2,9.978752136E-1,3.786211014E-1,1.067862796E0
2.220894803E0,9.563052654E-2,1.009101152E0,4.350614548E-1,1.103045241E0
2.225637043E0,1.785681248E-1,9.814424515E-1,5.384702682E-1,1.133607556E0
2.230379283E0,2.860604525E-1,9.602782726E-1,7.508764267E-1,1.252110359E0
2.235121522E0,3.445384502E-1,9.214646816E-1,1.084186554E0,1.463989203E0
2.239863762E0,3.692741394E-1,8.695304394E-1,1.473928452E0,1.750688909E0
2.244606001E0,3.470842838E-1,8.254234791E-1,1.879802704E0,2.082174254E0
2.249348241E0,3.124418259E-1,7.265951633E-1,2.273454666E0,2.407105429E0
2.254090480E0,2.687542439E-1,6.636459827E-1,2.597902298E0,2.694763660E0
2.258832720E0,1.665902138E-1,5.601894855E-1,2.757864952E0,2.819110436E0
2.263574960E0,6.159830093E-2,4.596314430E-1,2.729840279E0,2.768949866E0
2.268317199E0,-7.238388062E-2,3.793947697E-1,2.559432030E0,2.588411121E0
2.273059439E0,-2.401492596E-1,3.225853443E-1,2.344640732E0,2.378880647E0
2.277801678E0,-3.964562416E-1,2.970578671E-1,2.092446327E0,2.150291273E0
2.282543918E0,-5.751028061E-1,3.153305054E-1,1.845650673E0,1.958724833E0
2.287286158E0,-7.453026772E-1,3.395454884E-1,1.604019165E0,1.801012132E0
2.292028397E0,-9.241356850E-1,3.461232185E-1,1.407965660E0,1.719358993E0
2.296770637E0,-1.066547394E0,2.972655296E-1,1.221343994E0,1.648505775E0
2.301512876E0,-1.177765369E0,2.433359623E-1,1.120466232E0,1.643711725E0
2.306255168E0,-1.250934839E0,1.555626392E-1,1.081232071E0,1.660752991E0
2.310997408E0,-1.341101170E0,4.815316200E-2,1.105957985E0,1.738969275E0
2.315739647E0,-1.448148489E0,-1.414198875E-1,1.177945137E0,1.872081295E0
2.320481887E0,-1.507605553E0,-3.128762245E-1,1.330603600E0,2.035011541E0
2.325224126E0,-1.519561768E0,-5.119779110E-1,1.482645035E0,2.183901474E0
2.329966366E0,-1.538818359E0,-7.388226986E-1,1.629396439E0,2.359820688E0
2.334708605E0,-1.583696127E0,-9.481050968E-1,1.742421150E0,2.538312069E0
2.339450845E0,-1.622324467E0,-1.142585039E0,1.841186523E0,2.706918000E0
2.344193085E0,-1.689883471E0,-1.327156782E0,1.866168022E0,2.845985656E0
2.348935324E0,-1.857768059E0,-1.499528646E0,1.817598343E0,3.000591951E0
2.353677564E0,-2.018367767E0,-1.683693409E0,1.717139244E0,3.139617671E0
2.358419803E0,-2.131506443E0,-1.786252260E0,1.514564514E0,3.166689521E0
2.363162043E0,-2.226431131E0,-1.898038745E0,1.255332947E0,3.183615471E0
2.367904283E0,-2.315578222E0,-1.963970304E0,1.080387115E0,3.222781124E0
2.372646522E0,-2.379971504E0,-1.993854403E0,9.680767059E-1,3.252213439E0
2.377388814E0,-2.431672812E0,-1.992775559E0,8.920583725E-1,3.268020078E0
2.382131053E0,-2.489931583E0,-1.985233903E0,8.691444397E-1,3.300958194E0
2.386873293E0,-2.516503811E0,-1.909368157E0,8.133020401E-1,3.261891844E0
2.391615533E0,-2.468788862E0,-1.806238055E0,7.341756821E-1,3.145858911E0
2.396357772E0,-2.414371967E0,-1.733280540E0,6.125879288E-1,3.034586857E0
2.401100012E0,-2.296793461E0,-1.632916093E0,4.268445969E-1,2.850240600E0
2.405842251E0,-2.164711475E0,-1.485975504E0,2.389707565E-1,2.636513985E0
2.410584491E0,-2.047277927E0,-1.349621296E0,3.681087494E-2,2.452382432E0
2.415326730E0,-1.932616711E0,-1.230763078E0,-2.036123276E-1,2.300270220E0
2.420068970E0,-1.768033028E0,-1.090621233E0,-4.441480637E-1,2.124302936E0
2.424811210E0,-1.579823256E0,-9.455447197E-1,-6.060762405E-1,1.938356197E0
2.429553449E0,-1.351588964E0,-7.954392433E-1,-6.705532074E-1,1.705625376E0
2.434295741E0,-1.124510765E0,-6.785688400E-1,-6.952295303E-1,1.486043146E0
2.439037928E0,-9.275627136E-1,-5.542516708E-1,-6.420316696E-1,1.256889879E0
2.443780220E0,-8.180422783E-1,-4.966096878E-1,-5.708293915E-1,1.114298230E0
2.448522460E0,-6.735873222E-1,-4.984076023E-1,-4.337539673E-1,9.435425390E-1
2.453264699E0,-5.009498596E-1,-4.784815311E-1,-1.662216187E-1,7.124078635E-1
2.458006939E0,-3.068349361E-1,-5.065643787E-1,1.338319778E-1,6.071788420E-1
2.462749178E0,-1.503121853E-1,-5.352339745E-1,5.025339127E-1,7.494060941E-1
2.467491418E0,-7.851243019E-2,-6.197178364E-1,8.348693848E-1,1.042699040E0
2.472233658E0,-2.621507645E-2,-7.051229477E-1,1.037920952E0,1.255055976E0
2.476975897E0,2.366828918E-2,-7.507245541E-1,1.159777641E0,1.381749515E0
2.481718137E0,7.369756699E-2,-7.947766781E-1,1.253185272E0,1.485790909E0
2.486460428E0,1.195416451E-1,-8.131635189E-1,1.308670998E0,1.545362383E0
2.491202668E0,1.569834948E-1,-8.059406281E-1,1.376611710E0,1.602886120E0
2.495944908E0,1.724841595E-1,-7.398054600E-1,1.483479500E0,1.666665632E0
2.500687147E0,1.882677078E-1,-6.458544731E-1,1.483556747E0,1.628960820E0
2.505429387E0,1.713622808E-1,-6.242733002E-1,1.400959969E0,1.543298746E0
2.510171626E0,1.866717339E-1,-5.814552307E-1,1.219081879E0,1.363487128E0
2.514913866E0,1.696519852E-1,-5.959544182E-1,9.905557632E-1,1.168393848E0
2.519656105E0,1.369620562E-1,-6.363732815E-1,6.603908539E-1,9.272786195E-1
2.524398345E0,1.004737616E-1,-6.834669113E-1,3.601484299E-1,7.790564082E-1
2.529140637E0,9.374034405E-2,-7.273550034E-1,8.432388306E-3,7.334191559E-1
2.533882876E0,5.456328392E-2,-7.940182686E-1,-3.661060333E-1,8.760569562E-1
2.538625116E0,-3.904795647E-2,-8.857121468E-1,-7.420721054E-1,1.156149540E0
2.543367355E0,-1.663246155E-1,-9.878966808E-1,-1.081474781E0,1.474174831E0
2.548109595E0,-2.490961552E-1,-1.062343597E0,-1.363039494E0,1.745995268E0
2.552851835E0,-3.114852905E-1,-1.104594231E0,-1.534234524E0,1.915992452E0
2.557594074E0,-3.560323715E-1,-1.119665623E0,-1.717092991E0,2.080581288E0
2.562336314E0,-3.783648014E-1,-1.174746513E0,-1.870966911E0,2.241362638E0
2.567078605E0,-4.725995064E-1,-1.210381985E0,-2.034213543E0,2.413793608E0
2.571820845E0,-5.772573948E-1,-1.274630785E0,-2.137620926E0,2.554864568E0
2.576563085E0,-6.475121975E-1,-1.303341389E0,-2.174116611E0,2.616248050E0
2.581305324E0,-7.219946384E-1,-1.301836491E0,-2.148509026E0,2.613837321E0
2.586047564E0,-7.816267014E-1,-1.251453161E0,-2.027318954E0,2.507408514E0
2.590789803E0,-7.830586433E-1,-1.157346487E0,-1.908497810E0,2.365374309E0
2.595532043E0,-7.379384041E-1,-1.036423683E0,-1.846861839E0,2.242682722E0
2.600274283E0,-6.749277115E-1,-9.317147732E-1,-1.856624126E0,2.184187030E0
2.605016574E0,-6.300189495E-1,-8.692688942E-1,-1.904301167E0,2.186073013E0
2.609758814E0,-5.912292004E-1,-8.273310661E-1,-1.927753925E0,2.179510004E0
2.614501053E0,-4.866364002E-1,-7.744486332E-1,-1.931884766E0,2.137466823E0
2.619243293E0,-4.141936302E-1,-7.461903095E-1,-1.931146622E0,2.111322717E0
2.623985533E0,-3.736958504E-1,-7.256815434E-1,-1.947056770E0,2.111230058E0
2.628727772E0,-3.435056210E-1,-7.151088715E-1,-1.967692375E0,2.121600833E0
2.633470012E0,-3.662743568E-1,-7.116448879E-1,-1.988350391E0,2.143392785E0
2.638212303E0,-3.650205135E-1,-7.100062370E-1,-2.030641556E0,2.181938120E0
2.642954543E0,-3.561644554E-1,-6.932079792E-1,-2.039583206E0,2.183412484E0
2.647696783E0,-3.659808636E-1,-6.634545326E-1,-2.048784256E0,2.184406289E0
2.652439022E0,-3.871505260E-1,-6.517832279E-1,-2.015225410E0,2.153100174E0
2.657181262E0,-4.338996410E-1,-6.175076962E-1,-1.991556168E0,2.129760696E0
2.661923501E0,-4.272751808E-1,-5.893115997E-1,-1.968207359E0,2.098497665E0
2.666665741E0,-3.601055145E-1,-5.815515518E-1,-1.909301758E0,2.028130023E0
2.671408033E0,-3.280701637E-1,-5.369002819E-1,-1.872224808E0,1.975124724E0
2.676150272E0,-3.241279125E-1,-4.793179035E-1,-1.835488796E0,1.924532067E0
2.680892512E0,-3.126964569E-1,-4.471209049E-1,-1.823051929E0,1.902948900E0
2.685634751E0,-3.061068058E-1,-4.140307903E-1,-1.832556725E0,1.903519640E0
2.690376991E0,-3.285710812E-1,-4.062876701E-1,-1.797162056E0,1.871582240E0
2.695119283E0,-3.780915737E-1,-3.953428268E-1,-1.743283272E0,1.827097631E0
2.699861522E0,-4.502453804E-1,-3.908400536E-1,-1.716436863E0,1.817039448E0
2.704603762E0,-5.523216724E-1,-3.738372326E-1,-1.604217529E0,1.737333413E0
2.709346001E0,-6.675498486E-1,-3.324458599E-1,-1.413932800E0,1.598545906E0
2.714088241E0,-6.954970360E-1,-3.362388611E-1,-1.159953117E0,1.393651295E0
2.718830480E0,-7.606747150E-1,-3.853785992E-1,-8.853197098E-1,1.229200421E0
2.723572772E0,-7.935955524E-1,-4.561016560E-1,-5.421438217E-1,1.063833890E0
2.728315012E0,-8.444266319E-1,-4.840416908E-1,-2.164678574E-1,9.971013130E-1
2.733057251E0,-9.246149063E-1,-5.124382973E-1,1.301746368E-1,1.065106178E0
2.737799491E0,-9.068472385E-1,-5.104074478E-1,4.645366669E-1,1.139597294E0
2.742541730E0,-8.934354782E-1,-5.906643867E-1,7.630672455E-1,1.315060072E0
2.747283970E0,-9.173753262E-1,-6.934709549E-1,1.042753220E0,1.552357475E0
2.752026262E0,-9.765536785E-1,-8.142507076E-1,1.246295929E0,1.780425467E0
2.756768501E0,-9.896688461E-1,-9.052801132E-1,1.440794945E0,1.968468080E0
2.761510741E0,-9.922754765E-1,-9.402499199E-1,1.657411575E0,2.148416548E0
2.766252980E0,-9.360818863E-1,-9.286146164E-1,1.826851845E0,2.252989584E0
2.770995220E0,-8.255054951E-1,-8.511102200E-1,1.944445610E0,2.277436423E0
2.775737460E0,-7.008073330E-1,-8.103554249E-1,1.952934265E0,2.227500634E0
2.780479751E0,-5.998499393E-1,-7.413015366E-1,1.914552689E0,2.138892217E0
2.785221991E0,-5.127952099E-1,-6.795220375E-1,1.755211830E0,1.950763362E0
2.789964230E0,-4.278080463E-1,-6.101639271E-1,1.520268440E0,1.693084721E0
2.794706470E0,-3.524007797E-1,-5.112111568E-1,1.295557022E0,1.436659721E0
2.799448762E0,-2.294173241E-1,-3.897342682E-1,1.097666740E0,1.187180433E0
2.804191001E0,-1.043541431E-1,-3.078410625E-1,9.743232727E-1,1.027113308E0
2.808933241E0,-3.429150581E-2,-2.560267448E-1,9.135971069E-1,9.494131215E-1
2.813675480E0,-5.730390549E-2,-2.607214451E-1,8.677120209E-1,9.078455599E-1
2.818417772E0,-1.642661095E-1,-1.832122803E-1,8.030319214E-1,8.398871121E-1
2.823160012E0,-2.914032936E-1,-1.047320366E-1,6.284389496E-1,7.005856067E-1
2.827902251E0,-5.798156261E-1,-1.694722176E-1,-6.325402260E-1,8.746508620E-1
2.832644491E0,-1.107876062E0,-1.218953133E-1,-2.669720173E0,2.893035368E0
2.837386730E0,-1.486369848E0,5.953025818E-2,-3.394019604E0,3.705699428E0
2.842128970E0,-1.589812040E0,9.859848022E-2,-2.883920193E0,3.294574276E0
2.846871262E0,-1.622399807E0,-9.807109833E-3,-2.639964581E0,3.098659436E0
2.851613501E0,-1.632059813E0,-1.941084862E-1,-2.391403675E0,2.901742386E0
2.856355741E0,-1.514777184E0,-3.600215912E-1,-1.384192944E0,2.083304003E0
2.861097980E0,-1.321002960E0,-5.453345776E-1,1.144332886E-1,1.433713221E0
2.865840220E0,-1.241941452E0,-7.112429142E-1,1.696673393E0,2.219681431E0
2.870582512E0,-1.214765787E0,-8.593211174E-1,3.304253578E0,3.623835042E0
2.875324751E0,-1.116300106E0,-9.045772552E-1,4.718740463E0,4.932635958E0
2.880066991E0,-8.232192993E-1,-8.643245697E-1,5.877158165E0,5.997143910E0
2.884809283E0,-4.281392097E-1,-6.883590221E-1,6.579910278E0,6.629657653E0
2.889551522E0,-1.034305096E-1,-5.359342098E-1,6.562454224E0,6.585114182E0
2.894293762E0,1.540102959E-1,-4.813637733E-1,5.770106316E0,5.792197955E0
2.899036001E0,3.429852724E-1,-5.529615879E-1,4.381807327E0,4.429857884E0
2.903778241E0,5.349638462E-1,-8.600504398E-1,2.652214050E0,2.839033717E0
2.908520533E0,7.962599993E-1,-1.304539442E0,9.266500473E-1,1.787325782E0
2.913262772E0,9.018414021E-1,-1.452097654E0,-6.170663834E-1,1.817326727E0
2.918005012E0,7.563753128E-1,-1.546416759E0,-1.901295662E0,2.564845727E0
2.922747251E0,5.731165409E-1,-1.468052387E0,-2.850617886E0,3.257247720E0
2.927489543E0,5.865180492E-1,-1.177119493E0,-3.410996914E0,3.655750767E0
2.932231783E0,-1.041624546E-1,-1.186645508E0,-3.429996967E0,3.630958079E0
2.936974022E0,-8.751068115E-1,-1.296936035E0,-3.216379642E0,3.576723782E0
2.941716262E0,-1.368879557E0,-1.342336178E0,-2.836894035E0,3.423983853E0
2.946458553E0,-1.555500746E0,-1.334262848E0,-2.195517063E0,3.003353974E0
2.951200793E0,-1.510936499E0,-1.221497059E0,-1.580953598E0,2.504874936E0
2.955943033E0,-1.260137320E0,-1.079353571E0,-1.013659477E0,1.944339407E0
2.960685272E0,-8.497974873E-1,-9.328074455E-1,-3.540239334E-1,1.310579431E0
2.965427564E0,-3.335518837E-1,-7.277400494E-1,3.723440170E-1,8.828943910E-1
2.970169803E0,1.855123043E-1,-5.175118446E-1,1.094530106E0,1.224838551E0
2.974912043E0,5.993649960E-1,-2.787401676E-1,1.710458755E0,1.833740340E0
2.979654283E0,8.760143518E-1,-1.506047249E-1,2.199280739E0,2.372112707E0
2.984396574E0,9.209384918E-1,-9.009385109E-2,2.561437607E0,2.723455015E0
2.989138814E0,7.776670456E-1,-1.208474636E-1,2.653624535E0,2.767868009E0
2.993881053E0,6.226288080E-1,-2.254917622E-1,2.509291649E0,2.595198980E0
2.998623293E0,5.119080544E-1,-3.577682972E-1,2.161626816E0,2.250039667E0
3.003365585E0,4.009952545E-1,-5.262989998E-1,1.789493561E0,1.907898067E0
3.008107824E0,3.126389980E-1,-6.676814556E-1,1.277418137E0,1.474902968E0
3.012850064E0,2.412993908E-1,-7.997634411E-1,7.802743912E-1,1.143098895E0
3.017592355E0,1.435246468E-1,-8.974947929E-1,4.265432358E-1,1.004009641E0
3.022334595E0,9.568333626E-2,-9.385564327E-1,3.590335846E-1,1.009429836E0
3.027076835E0,5.204796791E-3,-9.440376759E-1,5.246725082E-1,1.080053454E0
3.031819074E0,-2.029540539E-1,-9.638943672E-1,7.966022491E-1,1.266829840E0
3.036561366E0,-5.124942064E-1,-1.005207300E0,1.053105354E0,1.543412749E0
3.041303605E0,-5.939254761E-1,-1.029347658E0,1.220334053E0,1.703384652E0
3.046045845E0,-5.892637968E-1,-1.057265043E0,1.133578300E0,1.658324744E0
3.050788085E0,-6.486850977E-1,-1.112315416E0,9.365100861E-1,1.592196308E0
3.055530376E0,-4.718149900E-1,-1.149373531E0,9.853954315E-1,1.585772069E0
3.060272616E0,-2.008333206E-1,-1.145282984E0,1.079203606E0,1.586407122E0
3.065014855E0,3.249001503E-2,-1.158306360E0,1.194276810E0,1.664039159E0
3.069757147E0,1.592589617E-1,-1.172489643E0,1.307087898E0,1.763114901E0
3.074499387E0,1.488022804E-1,-1.200458527E0,1.346251488E0,1.809871780E0
3.079241626E0,-5.843985081E-2,-1.247655630E0,1.302595139E0,1.804664479E0
3.083983866E0,-4.171171188E-1,-1.314780474E0,1.195588112E0,1.825394565E0
3.088726158E0,-7.726209164E-1,-1.380800962E0,9.918689728E-1,1.867447037E0
3.093468397E0,-1.088022828E0,-1.398370266E0,7.034645081E-1,1.906330346E0
3.098210637E0,-1.326113343E0,-1.427496672E0,4.188127518E-1,1.992919333E0
3.102952928E0,-1.483257413E0,-1.444298267E0,5.882549286E-2,2.071113342E0
3.107695168E0,-1.624986291E0,-1.455753088E0,-3.168916702E-1,2.204590173E0
3.112437408E0,-1.663795590E0,-1.442398071E0,-6.919155121E-1,2.308132370E0
3.117179647E0,-1.655492902E0,-1.399322748E0,-9.660634995E-1,2.373191856E0
3.121921939E0,-1.571933270E0,-1.290503740E0,-1.177920341E0,2.350291565E0
3.126664178E0,-1.389552951E0,-1.137540817E0,-1.322857857E0,2.230428081E0
3.131406418E0,-1.184909344E0,-9.855456352E-1,-1.520622253E0,2.165087155E0
3.136148710E0,-9.485155344E-1,-8.293356895E-1,-1.670889854E0,2.092690209E0
3.140890949E0,-7.044079304E-1,-6.710598469E-1,-1.797732830E0,2.044102536E0
3.145633189E0,-5.267474651E-1,-5.512883663E-1,-1.841440201E0,1.993058897E0
3.150375480E0,-4.391915798E-1,-4.698543549E-1,-1.809293747E0,1.920207338E0
3.155117720E0,-4.389866590E-1,-4.124586582E-1,-1.775399208E0,1.874799664E0
3.159859960E0,-5.114080906E-1,-3.980960846E-1,-1.722979546E0,1.840836017E0
3.164602199E0,-6.173896790E-1,-4.121954441E-1,-1.620886803E0,1.782792508E0
3.169344491E0,-7.384688854E-1,-4.853098392E-1,-1.363872051E0,1.625118121E0
3.174086730E0,-7.539144754E-1,-4.929509163E-1,-1.035654068E0,1.372576770E0
3.178828970E0,-6.393672228E-1,-5.475265980E-1,-8.035860062E-1,1.163755254E0
3.183571262E0,-5.617668629E-1,-6.247298717E-1,-6.986351013E-1,1.092684962E0
3.188313501E0,-5.254182816E-1,-7.218139172E-1,-6.513500214E-1,1.105140965E0
3.193055741E0,-5.560638905E-1,-8.480103016E-1,-5.732450485E-1,1.164876992E0
3.197798033E0,-5.817840099E-1,-9.672706127E-1,-4.811525345E-1,1.227026012E0
3.202540272E0,-5.881193876E-1,-1.043786764E0,-4.157104492E-1,1.268144472E0
3.207282512E0,-5.894856453E-1,-1.111074448E0,-4.127578735E-1,1.323763127E0
3.212024803E0,-6.386003494E-1,-1.145324230E0,-3.478860855E-1,1.356688147E0
3.216767043E0,-7.261745930E-1,-1.180366993E0,-2.450323105E-1,1.407350920E0
3.221509283E0,-8.166236877E-1,-1.207062960E0,-1.208772659E-1,1.462356506E0
3.226251574E0,-8.693189621E-1,-1.204279900E0,-2.313423157E-2,1.485442940E0
3.230993814E0,-9.032857418E-1,-1.201105595E0,5.077934265E-2,1.503714841E0
3.235736053E0,-9.253706932E-1,-1.226244450E0,1.033353806E-1,1.539696259E0
3.240478345E0,-8.564618826E-1,-1.234251022E0,1.465568542E-1,1.509430838E0
3.245220585E0,-6.917791367E-1,-1.172419548E0,1.493511200E-1,1.369464029E0
3.249962824E0,-4.338288307E-1,-1.100545883E0,1.284866333E-1,1.189923321E0
3.254705116E0,-2.044855356E-1,-1.037538528E0,8.395195007E-2,1.060824426E0
3.259447355E0,-6.211280823E-3,-9.806783199E-1,-3.931808472E-2,9.814858425E-1
3.264189595E0,1.342195272E-1,-9.154551029E-1,-1.839447021E-1,9.433496597E-1
3.268931887E0,1.850303411E-1,-8.752567768E-1,-3.069944382E-1,9.458098316E-1
3.273674126E0,1.003788710E-1,-9.055209160E-1,-3.798542023E-1,9.870832093E-1
3.278416366E0,-4.115426540E-2,-9.990116358E-1,-4.122037888E-1,1.081494284E0
3.283158658E0,-1.706607342E-1,-1.112864375E0,-4.447174072E-1,1.210522935E0
3.287900897E0,-2.934494019E-1,-1.209291935E0,-5.107698441E-1,1.345133960E0
3.292643137E0,-4.482449293E-1,-1.410401821E0,-6.103258133E-1,1.600829289E0
3.297385428E0,-6.020503044E-1,-1.594149232E0,-6.979780197E-1,1.841453138E0
3.302127668E0,-7.244728804E-1,-1.760654807E0,-7.427368164E-1,2.043630173E0
3.306869908E0,-8.975719213E-1,-1.878871918E0,-7.615022659E-1,2.217133451E0
3.311612199E0,-1.014315367E0,-1.970543861E0,-7.304468155E-1,2.333544798E0
3.316354439E0,-1.175328851E0,-1.954648852E0,-6.591567993E-1,2.374139366E0
3.321096730E0,-1.253459573E0,-1.877017736E0,-5.164756775E-1,2.315405712E0
3.325838970E0,-1.303007960E0,-1.783356190E0,-3.358011246E-1,2.234043742E0
3.330581210E0,-1.325562835E0,-1.721571565E0,-1.792011261E-1,2.180146446E0
3.335323501E0,-1.327234387E0,-1.619755030E0,-5.885124207E-3,2.094085029E0
3.340065741E0,-1.318812013E0,-1.535119295E0,2.153024673E-1,2.035242376E0
3.344807980E0,-1.256539583E0,-1.381524563E0,4.532957077E-1,1.921712476E0
3.349550272E0,-1.027806044E0,-1.233053803E0,6.028871536E-1,1.714724428E0
3.354292512E0,-7.330777645E-1,-1.135098457E0,6.833353043E-1,1.514199014E0
3.359034751E0,-4.132425785E-1,-1.006170869E0,7.090244293E-1,1.298408598E0
3.363777043E0,-1.499623060E-1,-9.320809841E-1,6.416568756E-1,1.141484647E0
3.368519283E0,4.186725616E-2,-9.196557999E-1,5.051231384E-1,1.050080493E0
3.373261522E0,1.466673613E-1,-9.609488249E-1,3.183116913E-1,1.022866703E0
3.378003814E0,3.183649778E-1,-1.135440946E0,-3.523254395E-1,1.230737834E0
3.382746053E0,3.261732459E-1,-1.185932398E0,-7.318887711E-1,1.431253231E0
3.387488293E0,2.579192519E-1,-1.167282939E0,-8.229646683E-1,1.451324445E0
3.392230585E0,1.078993082E-1,-1.112979650E0,-6.663532257E-1,1.301688359E0
3.396972824E0,-2.727127075E-2,-1.054213881E0,-4.199743271E-1,1.135116322E0
3.401715116E0,-4.248893261E-2,-9.219329357E-1,-1.770381927E-1,9.397383514E-1
3.406457355E0,-2.778768539E-4,-8.098709583E-1,-3.778934479E-2,8.107521699E-1
3.411199595E0,-1.013720036E-2,-7.470245361E-1,1.009445190E-1,7.538820971E-1
3.415941887E0,-1.428175569E-1,-7.432155609E-1,2.824478149E-1,8.078013324E-1
3.420684126E0,-7.096190453E-1,-8.970875144E-1,6.217966080E-1,1.301904843E0
3.425426418E0,-1.716526151E0,-1.158963919E0,1.183779716E0,2.385580392E0
3.430168658E0,-2.345817327E0,-1.134687185E0,1.188956261E0,2.864260975E0
3.434910897E0,-2.469682693E0,-9.113013744E-1,1.030187607E0,2.826851483E0
3.439653189E0,-2.717717648E0,-7.389822006E-1,1.221650124E0,3.069936958E0
3.444395428E0,-3.106894255E0,-8.127180338E-1,1.451969147E0,3.524417245E0
3.449137668E0,-3.323153019E0,-1.025314927E0,1.539287567E0,3.803159595E0
3.453879960E0,-3.236627102E0,-1.278985143E0,1.624745369E0,3.840749342E0
3.458622199E0,-2.872594833E0,-1.564807534E0,1.866090775E0,3.765995018E0
3.463364491E0,-2.274443150E0,-1.828577518E0,2.246425629E0,3.682827105E0
3.468106730E0,-1.462827444E0,-2.068608999E0,2.756112099E0,3.743682842E0
3.472848970E0,-6.201108098E-1,-2.252162218E0,3.234951019E0,3.990198011E0
3.477591262E0,-2.123456001E-1,-2.387074232E0,3.740522385E0,4.442377939E0
3.482333501E0,-9.091395140E-2,-2.507254124E0,4.172452927E0,4.868670456E0
3.487075741E0,-5.624103546E-2,-2.675292730E0,4.652739525E0,5.367340061E0
3.491818033E0,5.623376369E-2,-2.757876396E0,5.066477776E0,5.768729626E0
3.496560272E0,1.885238886E-1,-2.767230988E0,5.241520882E0,5.930147532E0
3.501302564E0,1.829185188E-1,-2.703299999E0,5.120756149E0,5.793395689E0
3.506044803E0,2.086740732E-2,-2.599073410E0,4.747567177E0,5.412486687E0
3.510787043E0,-2.920565009E-1,-2.578125000E0,4.177239418E0,4.917454084E0
3.515529335E0,-6.047459245E-1,-2.581832886E0,3.565371513E0,4.443360520E0
3.520271574E0,-7.703269124E-1,-2.499191999E0,2.842545509E0,3.862567692E0
3.525013866E0,-8.944651484E-1,-2.370177031E0,1.975252151E0,3.212386670E0
3.529756105E0,-1.015306950E0,-2.296618700E0,1.071090698E0,2.729934237E0
3.534498397E0,-1.062373400E0,-2.289248466E0,2.495021820E-1,2.536049511E0
3.539240637E0,-1.329900265E0,-2.375604868E0,-1.980323792E-1,2.729716107E0
3.543982876E0,-1.905304432E0,-2.554681540E0,-3.963785172E-1,3.211494773E0
3.548725168E0,-2.435649395E0,-2.679945707E0,-4.845438004E-1,3.653666605E0
3.553467408E0,-2.741110086E0,-2.732012749E0,-5.894069672E-1,3.914713111E0
3.558209647E0,-2.780949831E0,-2.679332733E0,-7.970638275E-1,3.943071975E0
3.562951939E0,-2.651099682E0,-2.583898544E0,-9.807024002E-1,3.829704742E0
3.567694178E0,-2.459115744E0,-2.438470364E0,-9.849624634E-1,3.600491495E0
3.572436470E0,-2.360037565E0,-2.326966524E0,-8.459215164E-1,3.420545823E0
3.577178710E0,-2.362948418E0,-2.256555796E0,-6.904802322E-1,3.339510778E0
3.581921001E0,-2.369522333E0,-2.179581881E0,-6.238384247E-1,3.279388303E0
3.586663241E0,-2.396643877E0,-2.110477448E0,-6.076335907E-1,3.250728458E0
3.591405480E0,-2.456159115E0,-2.030096531E0,-5.437726974E-1,3.232599305E0
3.596147772E0,-2.516345024E0,-1.952757359E0,-4.227428436E-1,3.213092761E0
3.600890012E0,-2.442585707E0,-1.863874555E0,-3.354768753E-1,3.090760105E0
3.605632303E0,-2.203527451E0,-1.767986774E0,-3.273687363E-1,2.844025448E0
3.610374543E0,-2.033296108E0,-1.664714336E0,-4.079074860E-1,2.659314837E0
3.615116835E0,-1.900804281E0,-1.549073219E0,-4.933147430E-1,2.501208546E0
3.619859074E0,-1.734717727E0,-1.404265404E0,-5.190534592E-1,2.291423882E0
3.624601314E0,-1.463971853E0,-1.216179967E0,-4.923667908E-1,1.965892254E0
3.629343605E0,-1.207116246E0,-1.085761905E0,-4.683113098E-1,1.689770407E0
3.634085845E0,-1.159632683E0,-1.044804692E0,-4.086246490E-1,1.613486569E0
3.638828137E0,-1.274714708E0,-1.098763824E0,-3.420219421E-1,1.717311427E0
3.643570376E0,-1.397431612E0,-1.212264180E0,-3.641214371E-1,1.885466514E0
3.648312616E0,-1.468346596E0,-1.323666930E0,-3.910827637E-1,2.015212543E0
3.653054908E0,-1.489990234E0,-1.443100095E0,-3.415555954E-1,2.102205748E0
3.657797147E0,-1.416939259E0,-1.513763428E0,-3.183908463E-1,2.097753396E0
3.662539439E0,-1.327818632E0,-1.641456604E0,-2.664842606E-1,2.128026307E0
3.667281678E0,-1.379690647E0,-1.764396667E0,-1.284065247E-1,2.243463866E0
3.672023970E0,-1.558824062E0,-1.882954359E0,6.715679169E-2,2.445395594E0
3.676766210E0,-1.714961290E0,-1.997205615E0,2.389345169E-1,2.643295708E0
3.681508449E0,-1.760814667E0,-2.028261662E0,3.678865433E-1,2.711024560E0
3.686250741E0,-1.820393801E0,-2.031385422E0,3.967189789E-1,2.756400963E0
3.690992980E0,-1.865039349E0,-2.047367573E0,3.638343811E-1,2.793288601E0
3.695735272E0,-1.933241129E0,-2.018769026E0,3.242998123E-1,2.813897655E0
3.700477512E0,-1.948796272E0,-2.014852524E0,2.231140137E-1,2.811977501E0
3.705219803E0,-1.897825003E0,-1.908486128E0,6.270980835E-2,2.692209420E0
3.709962043E0,-1.811730862E0,-1.802169800E0,-8.754158020E-2,2.556921632E0
3.714704335E0,-1.700292349E0,-1.702471972E0,-2.133617401E-1,2.415559587E0
3.719446574E0,-1.625905037E0,-1.616010308E0,-2.550640106E-1,2.306537265E0
3.724188814E0,-1.624830604E0,-1.521051049E0,-2.390909195E-1,2.238489502E0
3.728931105E0,-1.585052967E0,-1.348170161E0,-1.918449402E-1,2.089679443E0
3.733673345E0,-1.499389172E0,-1.149742126E0,-2.759790421E-1,1.909512838E0
3.738415637E0,-1.454107046E0,-9.663436413E-1,-2.450675964E-1,1.763038701E0
3.743157876E0,-1.427686930E0,-8.312993646E-1,-2.594680786E-1,1.672325413E0
3.747900168E0,-1.441454053E0,-7.466158867E-1,-3.597965240E-1,1.662732272E0
3.752642408E0,-1.485842466E0,-7.263776660E-1,-4.598960876E-1,1.716641127E0
3.757384699E0,-1.532399297E0,-7.058633566E-1,-5.717477798E-1,1.781400069E0
3.762126939E0,-1.626582623E0,-7.446416020E-1,-6.116857529E-1,1.890614081E0
3.766869178E0,-1.689553380E0,-8.210312128E-1,-6.109085083E-1,1.975320754E0
3.771611470E0,-1.707262278E0,-8.846800923E-1,-6.794939041E-1,2.039390918E0
3.776353710E0,-1.663169503E0,-9.305697680E-1,-8.413171768E-1,2.083244460E0
3.781096001E0,-1.593374968E0,-1.011137724E0,-1.031753540E0,2.150757692E0
3.785838241E0,-1.536226273E0,-1.080630422E0,-1.214956284E0,2.236933624E0
3.790580533E0,-1.449145317E0,-1.124604344E0,-1.367093086E0,2.287728259E0
3.795322772E0,-1.392588854E0,-1.131270647E0,-1.454771996E0,2.309856825E0
3.800065064E0,-1.398071527E0,-1.134179592E0,-1.504422188E0,2.346114546E0
3.804807303E0,-1.429780960E0,-1.135766983E0,-1.499370575E0,2.362700225E0
3.809549595E0,-1.459215403E0,-1.126542449E0,-1.473178864E0,2.359801569E0
3.814291835E0,-1.438625336E0,-1.087479711E0,-1.430656433E0,2.301962816E0
3.819034074E0,-1.420300007E0,-1.045022964E0,-1.340698242E0,2.215129089E0
3.823776366E0,-1.377237916E0,-1.037341833E0,-1.220063210E0,2.112206569E0
3.828518605E0,-1.328155279E0,-9.424885511E-1,-1.025712013E0,1.924673024E0
3.833260897E0,-1.258039951E0,-8.634730577E-1,-8.772277832E-1,1.760050802E0
3.838003137E0,-1.166047096E0,-7.858509421E-1,-8.031921387E-1,1.619365661E0
3.842745428E0,-1.056355000E0,-7.525690794E-1,-8.130455017E-1,1.530780550E0
3.847487668E0,-9.767024517E-1,-6.942911744E-1,-8.253707886E-1,1.455068676E0
3.852229960E0,-9.178124070E-1,-6.807626486E-1,-7.827444077E-1,1.385101515E0
3.856972199E0,-9.255024195E-1,-6.835313439E-1,-7.497739792E-1,1.373291974E0
3.861714491E0,-9.952426553E-1,-7.051529288E-1,-6.977519989E-1,1.405206906E0
3.866456730E0,-1.057885408E0,-7.936324477E-1,-6.266880035E-1,1.463458866E0
3.871199022E0,-1.027673841E0,-8.607248664E-1,-5.796165466E-1,1.460450670E0
3.875941262E0,-9.196698666E-1,-9.402270913E-1,-4.871568680E-1,1.402548203E0
3.880683553E0,-8.278063536E-1,-9.751147628E-1,-2.823925018E-1,1.309907510E0
3.885425793E0,-7.663353086E-1,-1.051820755E0,-1.016979218E-1,1.305350211E0
3.890168085E0,-7.751930952E-1,-1.084363461E0,2.635002136E-2,1.333215201E0
3.894910324E0,-8.704457283E-1,-1.089510918E0,9.468936920E-2,1.397739562E0
3.899652564E0,-1.044293046E0,-1.122230172E0,1.034250259E-1,1.536439150E0
3.904394855E0,-1.176725388E0,-1.191933155E0,6.698894501E-2,1.676268118E0
3.909137095E0,-1.339603901E0,-1.233916759E0,6.936073303E-3,1.821300988E0
3.913879387E0,-1.423225641E0,-1.276909232E0,-3.607368469E-2,1.912425090E0
3.918621626E0,-1.461934566E0,-1.342478275E0,-1.266641617E-1,1.988855049E0
3.923363918E0,-1.463766098E0,-1.378016233E0,-2.313451767E-1,2.023625588E0
3.928106158E0,-1.438613176E0,-1.376191378E0,-3.094997406E-1,2.014770624E0
3.932848449E0,-1.393170238E0,-1.410871029E0,-3.037862778E-1,2.005932819E0
3.937590689E0,-1.243180513E0,-1.352490783E0,-2.621593475E-1,1.855655310E0
3.942332980E0,-1.005046844E0,-1.231912374E0,-1.727390289E-1,1.599239204E0
3.947075220E0,-8.318257928E-1,-1.075283289E0,-1.169252396E-1,1.364492511E0
3.951817512E0,-7.256826758E-1,-9.277759790E-1,-1.090717316E-1,1.182911770E0
3.956559751E0,-7.341399789E-1,-7.843015194E-1,-1.443862915E-1,1.083945471E0
3.961302043E0,-7.683114409E-1,-6.589645147E-1,-1.965494156E-1,1.031100565E0
3.966044283E0,-7.703332901E-1,-5.441185236E-1,-2.680015564E-1,9.804606977E-1
3.970786574E0,-7.572858930E-1,-4.586712122E-1,-3.085775375E-1,9.375933560E-1
3.975528814E0,-7.345229387E-1,-3.931776285E-1,-2.872438431E-1,8.812613803E-1
3.980271105E0,-7.979387045E-1,-3.762897253E-1,-2.638778687E-1,9.208320493E-1
3.985013345E0,-8.877699971E-1,-3.790762424E-1,-2.433137894E-1,9.955078932E-1
3.989755637E0,-9.493152499E-1,-3.729958534E-1,-2.111873627E-1,1.041597548E0
3.994497876E0,-1.064485908E0,-4.060820341E-1,-1.507692337E-1,1.149245069E0
3.999240168E0,-1.138023615E0,-3.876520395E-1,-9.554576874E-2,1.206026884E0
4.003982408E0,-1.222789049E0,-4.303135872E-1,-2.635288239E-2,1.296563657E0
4.008724699E0,-1.189568043E0,-4.313175678E-1,6.639385223E-2,1.267089230E0
4.013466939E0,-1.069529891E0,-4.338496923E-1,1.372671127E-1,1.162308911E0
4.018209230E0,-8.913981915E-1,-4.427256584E-1,1.456642151E-1,1.005890058E0
4.022951470E0,-6.266225576E-1,-4.603607655E-1,1.323261261E-1,7.887319366E-1
4.027693762E0,-2.920460105E-1,-5.011141300E-1,2.072868347E-1,6.159334992E-1
4.032436001E0,1.789607555E-1,-5.770142078E-1,3.656768799E-1,7.061812292E-1
4.037178293E0,6.280425787E-1,-6.739472151E-1,6.098461151E-1,1.104787135E0
4.041920533E0,9.664967060E-1,-7.706863880E-1,8.488979340E-1,1.499566969E0
4.046662824E0,1.177955627E0,-8.937963247E-1,1.094882965E0,1.839896746E0
4.051405064E0,1.299237728E0,-9.284909964E-1,1.292847633E0,2.054645762E0
4.056147355E0,1.326936245E0,-9.083588123E-1,1.385514259E0,2.122622268E0
4.060889595E0,1.198117256E0,-9.337941408E-1,1.449542999E0,2.099674109E0
4.065631887E0,1.005414486E0,-1.011592031E0,1.331889153E0,1.951436763E0
4.070374126E0,8.363096118E-1,-1.079135299E0,1.123558044E0,1.768142935E0
4.075116418E0,6.105170250E-1,-1.152785897E0,8.604297638E-1,1.562685426E0
4.079858658E0,4.625837207E-1,-1.229950190E0,5.712032318E-1,1.432841338E0
4.084600949E0,3.352147043E-1,-1.291242361E0,2.845325470E-1,1.364050770E0
4.089343189E0,2.304559201E-1,-1.336710930E0,-3.067970276E-2,1.356778274E0
4.094085480E0,1.216041669E-1,-1.363958359E0,-3.002815247E-1,1.401905479E0
4.098827720E0,-2.754555643E-2,-1.373122692E0,-5.123453140E-1,1.465852109E0
4.103570012E0,-1.837711930E-1,-1.361871004E0,-7.290906906E-1,1.555647042E0
4.108312303E0,-3.546302617E-1,-1.287310123E0,-8.811273575E-1,1.599786047E0
4.113054543E0,-4.784983099E-1,-1.207191944E0,-9.995422363E-1,1.638706107E0
4.117796835E0,-5.534412265E-1,-1.071342230E0,-1.074789047E0,1.615315096E0
4.122539074E0,-5.632786155E-1,-9.207031727E-1,-1.149901390E0,1.577101879E0
4.127281366E0,-5.590773821E-1,-7.291520834E-1,-1.236794472E0,1.540743601E0
4.132023605E0,-5.465488434E-1,-5.542508364E-1,-1.340220451E0,1.549871119E0
4.136765897E0,-4.740743041E-1,-3.867219687E-1,-1.426646233E0,1.552295011E0
4.141508137E0,-4.072368443E-1,-2.243212461E-1,-1.496099472E0,1.566676578E0
4.146250428E0,-2.893597186E-1,-7.916736603E-2,-1.519910812E0,1.549233809E0
4.150992668E0,-2.118126452E-1,7.240045071E-2,-1.507692337E0,1.524218687E0
4.155734960E0,-7.463297248E-2,2.303651571E-1,-1.533654213E0,1.552653674E0
4.160477199E0,5.706223845E-2,3.275945187E-1,-1.564285278E0,1.599238162E0
4.165219491E0,1.804983318E-1,4.142408371E-1,-1.539821625E0,1.604750995E0
4.169961730E0,3.144668043E-1,4.685499668E-1,-1.484240532E0,1.587891180E0
4.174704022E0,4.251304269E-1,4.905407429E-1,-1.426310539E0,1.567076212E0
4.179446262E0,5.193684101E-1,4.753011465E-1,-1.351691246E0,1.524048539E0
4.184188553E0,5.372208357E-1,4.539241791E-1,-1.219769478E0,1.408009576E0
4.188930845E0,5.479589701E-1,3.880559206E-1,-1.028225899E0,1.228045166E0
4.193673085E0,4.704716802E-1,2.824745178E-1,-7.747154236E-1,9.493784507E-1
4.198415324E0,4.081572890E-1,1.276227236E-1,-4.545011520E-1,6.240602770E-1
4.203157616E0,3.618172407E-1,2.561569214E-3,-1.082725525E-1,3.776787298E-1
4.207899908E0,4.543947279E-1,-1.521681547E-1,1.443853378E-1,5.004766147E-1
4.212642147E0,5.480241776E-1,-2.477364540E-1,3.322801590E-1,6.871054896E-1
4.217384439E0,5.646273494E-1,-4.153398275E-1,4.937286377E-1,8.573675896E-1
4.222126678E0,5.095010400E-1,-5.637631416E-1,6.167850494E-1,9.786950428E-1
4.226868970E0,4.285050333E-1,-7.286643982E-1,7.110319138E-1,1.104597099E0
4.231611210E0,2.861596942E-1,-9.072861075E-1,6.999425888E-1,1.181090631E0
4.236353501E0,1.522260904E-1,-1.089749813E0,6.792507172E-1,1.293100528E0
4.241095741E0,7.476416230E-2,-1.268518209E0,6.010866165E-1,1.405714497E0
4.245838033E0,3.956189752E-2,-1.409750581E0,4.726352692E-1,1.487395691E0
4.250580324E0,1.806014776E-2,-1.503580570E0,3.154191971E-1,1.536414648E0
4.255322564E0,1.996988058E-2,-1.573652983E0,1.198596954E-1,1.578337370E0
4.260064855E0,-2.476572990E-4,-1.557641864E0,-7.337951660E-2,1.559369357E0
4.264807095E0,2.759367228E-3,-1.539210439E0,-2.069406509E-1,1.553061757E0
4.269549387E0,-7.872772217E-2,-1.489755988E0,-3.215255737E-1,1.526089661E0
4.274291626E0,-1.249449253E-1,-1.414102435E0,-3.621530533E-1,1.465077392E0
4.279033918E0,-1.525662839E-1,-1.302940726E0,-3.647298813E-1,1.361601591E0
4.283776158E0,-9.451296926E-2,-1.130203962E0,-3.340396881E-1,1.182318151E0
4.288518449E0,8.330404758E-3,-9.537413716E-1,-2.628822327E-1,9.893427454E-1
4.293260741E0,1.534145772E-1,-7.235344648E-1,-1.751804352E-1,7.600831133E-1
4.298002980E0,2.856181860E-1,-5.094595551E-1,-6.609153748E-2,5.877881232E-1
4.302745272E0,4.573922157E-1,-2.400621176E-1,4.288291931E-2,5.183400468E-1
4.307487512E0,6.016859412E-1,-3.757393360E-2,1.326532364E-1,6.172800446E-1
4.312229803E0,7.186620235E-1,1.720798016E-1,1.889228821E-1,7.627440053E-1
4.316972043E0,8.370671272E-1,3.338121176E-1,2.141447067E-1,9.262666251E-1
4.321714335E0,9.349722862E-1,4.834976196E-1,1.700983047E-1,1.066244136E0
4.326456574E0,1.028549910E0,5.684125423E-1,9.991073608E-2,1.179402344E0
4.331198866E0,1.054831862E0,6.075234413E-1,5.622577667E-2,1.218571429E0
4.335941105E0,1.051266432E0,6.293612719E-1,7.916450500E-3,1.225283392E0
4.340683397E0,9.955326915E-1,5.763491392E-1,-9.284782410E-2,1.154072956E0
4.345425689E0,9.110519886E-1,5.440064669E-1,-2.244853973E-1,1.084597831E0
4.350167928E0,8.283092976E-1,4.891083241E-1,-3.558931351E-1,1.025662307E0
4.354910220E0,6.681265235E-1,4.210351706E-1,-4.535894394E-1,9.107178739E-1
4.359652460E0,4.976478517E-1,3.492932320E-1,-4.889183044E-1,7.801924472E-1
4.364394751E0,3.362033963E-1,2.664445639E-1,-4.930124283E-1,6.535186943E-1
4.369136991E0,2.391378880E-1,2.203067541E-1,-4.635047913E-1,5.661790237E-1
4.373879283E0,1.781196743E-1,1.484766006E-1,-4.386587143E-1,4.961787853E-1
4.378621522E0,1.226688474E-1,7.029032707E-2,-3.754262924E-1,4.011649003E-1
4.383363814E0,7.354173064E-2,3.602933884E-2,-2.810115814E-1,2.927012270E-1
4.388106105E0,1.509059221E-1,2.885127068E-2,-1.410808563E-1,2.085876342E-1
4.392848345E0,2.332302481E-1,8.706295490E-2,-2.503108978E-2,2.502056398E-1
4.397590637E0,2.662022710E-1,1.414327621E-1,3.369045258E-2,3.033181859E-1
4.402332876E0,2.170813233E-1,2.160589695E-1,7.101249695E-2,3.144018987E-1
4.407075168E0,1.582340747E-1,2.681667805E-1,8.454895020E-2,3.226452689E-1
4.411817460E0,1.068344861E-1,2.884796858E-1,1.149530411E-1,3.284027073E-1
4.416559699E0,1.297711134E-1,3.226218224E-1,1.024055481E-1,3.625083150E-1
4.421301991E0,1.526146084E-1,3.756269217E-1,4.691886902E-2,4.081521570E-1
4.426044230E0,2.275016308E-1,4.047363997E-1,-6.065368652E-3,4.643332143E-1
4.430786522E0,3.131584227E-1,4.315536022E-1,-8.748054504E-3,5.332759490E-1
4.435528762E0,3.877481520E-1,4.706823826E-1,-7.360744476E-2,6.142544999E-1
4.440271053E0,4.484758079E-1,4.672558308E-1,-1.216869354E-1,6.589888253E-1
4.445013345E0,5.404968262E-1,4.907906055E-1,-1.482419968E-1,7.449751185E-1
4.449755585E0,6.132850647E-1,4.982788563E-1,-1.485338211E-1,8.040290326E-1
4.454497876E0,6.496664286E-1,5.088200569E-1,-1.393384933E-1,8.368868110E-1
4.459240116E0,6.326103210E-1,4.815971255E-1,-8.718395233E-2,7.998328895E-1
4.463982408E0,5.236194730E-1,4.092022777E-1,-2.557849884E-2,6.650399357E-1
4.468724699E0,3.896238208E-1,3.177409172E-1,4.309463501E-2,5.046019815E-1
4.473466939E0,2.712088823E-1,2.070362568E-1,1.427564621E-1,3.698616998E-1
4.478209230E0,2.378804386E-1,1.127290130E-1,2.470951080E-1,3.610414461E-1
4.482951470E0,2.494421601E-1,-1.327222586E-2,3.441896439E-1,4.252811472E-1
4.487693762E0,2.993912697E-1,-1.112897396E-1,4.842967987E-1,5.801412998E-1
4.492436001E0,3.717331290E-1,-2.460035682E-1,6.004400253E-1,7.478178246E-1
4.497178293E0,4.242751598E-1,-3.457241654E-1,7.668056488E-1,9.420857248E-1
4.501920585E0,4.435741305E-1,-4.488258064E-1,8.303289413E-1,1.042904005E0
4.506662824E0,4.469171166E-1,-5.241294503E-1,8.652715683E-1,1.105957267E0
4.511405116E0,3.412222564E-1,-6.362873316E-1,8.979864120E-1,1.152247279E0
4.516147355E0,2.102349401E-1,-7.589843869E-1,8.711013794E-1,1.174339662E0
4.520889647E0,1.107838154E-1,-8.609797359E-1,8.109722137E-1,1.187954162E0
4.525631939E0,6.593886018E-2,-9.710391164E-1,7.080650330E-1,1.203586719E0
4.530374178E0,6.030249596E-2,-1.079483271E0,6.700010300E-1,1.271936281E0
4.535116470E0,-2.741456032E-3,-1.207947969E0,6.751604080E-1,1.383830694E0
4.539858710E0,-8.085888624E-2,-1.339748502E0,7.736816406E-1,1.549208665E0
4.544601001E0,-1.866032779E-1,-1.460751772E0,8.913164139E-1,1.721354546E0
4.549343293E0,-2.463156879E-1,-1.594952822E0,1.035194397E0,1.917334963E0
4.554085533E0,-3.179260790E-1,-1.699396372E0,1.176575661E0,2.091256872E0
4.558827824E0,-3.679807782E-1,-1.764795780E0,1.336999893E0,2.244433718E0
4.563570064E0,-3.864236772E-1,-1.783960342E0,1.502113342E0,2.363933640E0
4.568312355E0,-4.176805317E-1,-1.809494734E0,1.628913879E0,2.470240605E0
4.573054595E0,-4.530398250E-1,-1.788568258E0,1.772499084E0,2.558510211E0
4.577796887E0,-5.389702916E-1,-1.744943142E0,1.880295753E0,2.621226366E0
4.582539178E0,-6.554136276E-1,-1.690265894E0,1.942799568E0,2.657260992E0
4.587281418E0,-7.277503610E-1,-1.624156237E0,1.914634705E0,2.614063909E0
4.592023710E0,-7.942280769E-1,-1.543677568E0,1.740876198E0,2.458533833E0
4.596766001E0,-8.528797626E-1,-1.474636197E0,1.579457283E0,2.323067178E0
4.601508241E0,-9.214717150E-1,-1.392582774E0,1.396784782E0,2.177017371E0
4.606250533E0,-9.916125536E-1,-1.306793332E0,1.199957848E0,2.032462326E0
4.610992772E0,-1.078598022E0,-1.228911400E0,1.043891907E0,1.939924544E0
4.615735064E0,-1.168724775E0,-1.160995483E0,9.021415710E-1,1.878213919E0
4.620477355E0,-1.293316841E0,-1.105379105E0,8.248662949E-1,1.890750068E0
4.625219595E0,-1.442981005E0,-1.081099868E0,8.262948990E-1,1.983364405E0
4.629961887E0,-1.508023262E0,-1.004365444E0,8.680238724E-1,2.009066835E0
4.634704178E0,-1.517317772E0,-9.278324246E-1,8.925962448E-1,1.989938262E0
4.639446418E0,-1.537883639E0,-8.490411043E-1,9.215335846E-1,1.983729072E0
4.644188710E0,-1.557556152E0,-8.301521540E-1,1.019393921E0,2.038209443E0
4.648930949E0,-1.612241268E0,-7.922513485E-1,1.059359550E0,2.085479984E0
4.653673241E0,-1.670869946E0,-8.143218756E-1,1.082152367E0,2.150809206E0
4.658415533E0,-1.793347478E0,-9.035805464E-1,1.106925011E0,2.292997156E0
4.663157772E0,-1.924858570E0,-9.883694053E-1,1.119323730E0,2.436152748E0
4.667900064E0,-2.032057047E0,-1.123926163E0,1.121772766E0,2.578922255E0
4.672642303E0,-2.148655176E0,-1.238782525E0,1.150177002E0,2.733899842E0
4.677384595E0,-2.255663633E0,-1.359537601E0,1.180613518E0,2.886210179E0
4.682126887E0,-2.384108543E0,-1.465192080E0,1.208365440E0,3.048099148E0
4.686869126E0,-2.516871214E0,-1.596687078E0,1.233501434E0,3.225767525E0
4.691611418E0,-2.572444201E0,-1.665976405E0,1.268054008E0,3.316761601E0
4.696353710E0,-2.571996689E0,-1.735497713E0,1.276202202E0,3.354968158E0
4.701095949E0,-2.479593754E0,-1.755452871E0,1.250863075E0,3.285522546E0
4.705838241E0,-2.361744881E0,-1.723572016E0,1.153876305E0,3.143241941E0
4.710580480E0,-2.213292122E0,-1.632763147E0,1.076221466E0,2.953443779E0
4.715322772E0,-2.038953304E0,-1.530963659E0,1.041797638E0,2.754364286E0
4.720065064E0,-1.867292285E0,-1.377520919E0,1.079254150E0,2.559127562E0
4.724807303E0,-1.688748956E0,-1.225199103E0,1.143074036E0,2.378992251E0
4.729549595E0,-1.498463273E0,-1.071630478E0,1.161497116E0,2.177810738E0
4.734291887E0,-1.370338678E0,-9.429358840E-1,1.141753197E0,2.017562028E0
4.739034126E0,-1.234810114E0,-8.676316142E-1,1.076709747E0,1.853872842E0
4.743776418E0,-1.048712730E0,-8.359779119E-1,9.592475891E-1,1.648882469E0
4.748518710E0,-9.077211618E-1,-7.951380014E-1,8.324537277E-1,1.466008649E0
4.753260949E0,-7.565872669E-1,-7.952217460E-1,6.604766846E-1,1.281027466E0
4.758003241E0,-6.236886978E-1,-8.382651210E-1,3.979377747E-1,1.118047619E0
4.762745533E0,-5.063641667E-1,-8.569604754E-1,8.558273315E-2,9.990547182E-1
4.767487772E0,-4.116026759E-1,-9.155111909E-1,-2.358980179E-1,1.031128207E0
4.772230064E0,-3.346049190E-1,-9.368655086E-1,-6.167554855E-1,1.170497656E0
4.776972303E0,-3.373742700E-1,-9.735426307E-1,-9.206180573E-1,1.381717865E0
4.781714595E0,-4.508383870E-1,-1.016028881E0,-1.087788582E0,1.555266516E0
4.786456887E0,-5.911136270E-1,-1.066781878E0,-1.261890411E0,1.754937693E0
4.791199126E0,-6.741305590E-1,-1.073178172E0,-1.473967552E0,1.943899109E0
4.795941418E0,-7.116231918E-1,-1.052115679E0,-1.664154053E0,2.093505118E0
4.800683710E0,-7.154312730E-1,-1.027600765E0,-1.818100452E0,2.207553962E0
4.805425949E0,-6.974357963E-1,-9.973627329E-1,-1.962123394E0,2.308912585E0
4.810168241E0,-6.817341447E-1,-9.351853728E-1,-2.084270000E0,2.384012282E0
4.814910533E0,-6.542977691E-1,-8.819357157E-1,-2.189345837E0,2.449316511E0
4.819652772E0,-6.276429296E-1,-8.377163410E-1,-2.322822571E0,2.547785119E0
4.824395064E0,-6.286807060E-1,-8.026871681E-1,-2.499039173E0,2.699026289E0
4.829137355E0,-7.127698660E-1,-8.055428267E-1,-2.636669159E0,2.847624340E0
4.833879595E0,-8.775983453E-1,-7.890173793E-1,-2.697498798E0,2.944355116E0
4.838621887E0,-9.536947608E-1,-7.293221951E-1,-2.753386021E0,3.003760833E0
4.843364178E0,-1.032620788E0,-6.602400541E-1,-2.782851219E0,3.040803106E0
4.848106418E0,-1.057382703E0,-5.986056328E-1,-2.824222565E0,3.074511340E0
4.852848710E0,-1.052377462E0,-5.110066533E-1,-2.810581207E0,3.044337834E0
4.857591001E0,-1.051588535E0,-4.407731593E-1,-2.789856911E0,3.013871432E0
4.862333241E0,-9.864493608E-1,-3.427827954E-1,-2.716702461E0,2.910507627E0
4.867075533E0,-8.841549158E-1,-2.271558642E-1,-2.581690788E0,2.738331066E0
4.871817824E0,-7.953243256E-1,-1.205483973E-1,-2.451890945E0,2.580473194E0
4.876560064E0,-7.462979555E-1,-5.191871524E-2,-2.296220779E0,2.415012642E0
4.881302355E0,-6.890114546E-1,5.020257831E-2,-2.143382072E0,2.251964430E0
4.886044647E0,-6.826119423E-1,1.641663015E-1,-1.964614868E0,2.086293656E0
4.890786887E0,-6.257112026E-1,2.564268410E-1,-1.743121147E0,1.869689966E0
4.895529178E0,-5.676571131E-1,3.653241098E-1,-1.552989006E0,1.693360905E0
4.900271470E0,-5.315210819E-1,4.692996740E-1,-1.353442192E0,1.527927555E0
4.905013710E0,-6.075587273E-1,5.255538821E-1,-1.082278252E0,1.347835563E0
4.909756001E0,-6.948248744E-1,5.629710555E-1,-8.447618484E-1,1.230179091E0
4.914498293E0,-7.667625546E-1,6.270793676E-1,-6.288738251E-1,1.173301170E0
4.919240533E0,-8.208470345E-1,6.680036783E-1,-4.848041534E-1,1.164067797E0
4.923982824E0,-8.664803505E-1,6.909539104E-1,-3.981170654E-1,1.177583416E0
4.928725116E0,-8.748824000E-1,6.965097189E-1,-4.213571548E-1,1.195025880E0
4.933467355E0,-8.483816981E-1,6.853227615E-1,-5.185441971E-1,1.207603775E0
4.938209647E0,-8.254215717E-1,6.531760693E-1,-5.868120193E-1,1.205117461E0
4.942951939E0,-8.090596795E-1,6.052045822E-1,-6.310644150E-1,1.191256667E0
4.947694178E0,-8.145004511E-1,5.608884096E-1,-6.203517914E-1,1.167408728E0
4.952436470E0,-8.235158920E-1,5.203219652E-1,-6.648349762E-1,1.179372256E0
4.957178762E0,-7.962090969E-1,4.932288527E-1,-6.760635376E-1,1.155112780E0
4.961921053E0,-7.523579001E-1,4.605125189E-1,-6.565275192E-1,1.099610192E0
4.966663293E0,-7.161625028E-1,3.720981479E-1,-5.728244781E-1,9.896836084E-1
4.971405585E0,-6.832101345E-1,3.068742156E-1,-4.178886414E-1,8.576589000E-1
4.976147876E0,-6.108087897E-1,2.862156034E-1,-2.157335281E-1,7.082003279E-1
4.980890116E0,-5.683773756E-1,2.573294044E-1,-1.660919189E-2,6.241371073E-1
4.985632408E0,-5.722830892E-1,2.749965787E-1,2.058525085E-1,6.674625890E-1
4.990374699E0,-6.168513894E-1,2.863774300E-1,4.015188217E-1,7.897689746E-1
4.995116939E0,-6.771497726E-1,2.649896145E-1,6.064033508E-1,9.468243418E-1
4.999859230E0,-7.448331714E-1,2.346444130E-1,8.469133377E-1,1.151996812E0
5.004601522E0,-7.566272616E-1,1.903671324E-1,1.147021294E0,1.387221073E0
5.009343762E0,-7.927481532E-1,1.343293190E-1,1.420670509E0,1.632421115E0
5.014086053E0,-8.450992107E-1,9.743797779E-2,1.579488754E0,1.794009911E0
5.018828345E0,-8.794731498E-1,6.052032113E-2,1.611701965E0,1.837040815E0
5.023570637E0,-9.863514900E-1,-1.205518842E-2,1.567684174E0,1.852206322E0
5.028312876E0,-1.117697477E0,-7.952809334E-2,1.485779762E0,1.860944349E0
5.033055168E0,-1.252093554E0,-1.537139416E-1,1.389921188E0,1.877031473E0
5.037797460E0,-1.328058243E0,-2.152938694E-1,1.189204216E0,1.795632706E0
5.042539699E0,-1.327662945E0,-2.449744940E-1,9.434442520E-1,1.647054478E0
5.047281991E0,-1.285717368E0,-2.785632908E-1,7.458591461E-1,1.512273958E0
5.052024283E0,-1.239343643E0,-2.777933180E-1,6.010828018E-1,1.405148507E0
5.056766574E0,-1.186998844E0,-2.954292595E-1,5.305137634E-1,1.333300250E0
5.061508814E0,-1.151167154E0,-2.622763813E-1,4.813928604E-1,1.275034824E0
5.066251105E0,-1.127665281E0,-2.168802321E-1,3.938789368E-1,1.214004382E0
5.070993397E0,-1.111494303E0,-1.760430187E-1,3.660755157E-1,1.183394276E0
5.075735637E0,-1.073298693E0,-9.927052259E-2,3.692731857E-1,1.139380273E0
5.080477928E0,-1.057737112E0,1.327311993E-2,4.561052322E-1,1.151961786E0
5.085220220E0,-1.006449699E0,1.135495603E-1,5.858955383E-1,1.170088921E0
5.089962512E0,-9.615510106E-1,2.444376647E-1,6.821479797E-1,1.204016605E0
5.094704751E0,-9.055526853E-1,3.173858225E-1,7.473459244E-1,1.216258754E0
5.099447043E0,-8.786916137E-1,4.137606025E-1,7.695960999E-1,1.239183177E0
5.104189335E0,-8.853217959E-1,4.618905485E-1,6.796312332E-1,1.207905698E0
5.108931626E0,-9.156733751E-1,4.526873231E-1,4.704189301E-1,1.124578815E0
5.113673866E0,-9.313161373E-1,4.296883345E-1,2.066669464E-1,1.046275795E0
5.118416158E0,-9.228953123E-1,4.746957421E-1,-3.505611420E-2,1.038412604E0
5.123158449E0,-8.621013165E-1,5.162577629E-1,-2.619819641E-1,1.038448510E0
5.127900689E0,-7.478384376E-1,6.118746996E-1,-4.718122482E-1,1.075295203E0
5.132642980E0,-6.073648930E-1,7.207574844E-1,-6.335391998E-1,1.135673977E0
5.137385272E0,-4.623836875E-1,1.010113955E0,-6.061506271E-1,1.265522603E0
5.142127564E0,-4.012454748E-1,1.240226984E0,-4.424648285E-1,1.376566754E0
5.146869803E0,-5.907982588E-1,1.267412782E0,-2.789077759E-1,1.425891752E0
5.151612095E0,-9.198610783E-1,1.084561348E0,-8.431720734E-2,1.424614724E0
5.156354387E0,-9.910197854E-1,1.012187004E0,6.478309631E-2,1.418040760E0
5.161096678E0,-6.100485921E-1,1.126132965E0,5.595970154E-2,1.281977468E0
5.165838918E0,-7.588046789E-2,1.294018507E0,-3.184127808E-2,1.296632411E0
5.170581210E0,1.754481792E-1,1.333409548E0,6.443500519E-2,1.346445304E0
5.175323501E0,2.736473083E-2,1.272768497E0,7.197761536E-2,1.275095782E0
5.180065793E0,-3.373855352E-1,1.104691505E0,1.630830765E-1,1.166519786E0
5.184808033E0,-5.164176822E-1,1.005954504E0,3.257169724E-1,1.176742637E0
5.189550324E0,-2.350910306E-1,1.023965597E0,4.904232025E-1,1.159434455E0
5.194292616E0,2.379656434E-1,1.127185464E0,6.189117432E-1,1.307756271E0
5.199034908E0,4.795193672E-1,1.219784379E0,7.447166443E-1,1.507453361E0
5.203777147E0,4.017966688E-1,1.229944229E0,8.989582062E-1,1.575540931E0
5.208519439E0,1.822422743E-1,1.272321224E0,1.005094528E0,1.631633707E0
5.213261730E0,4.297697544E-2,1.291732073E0,1.039244652E0,1.658447531E0
5.218004022E0,-2.413988113E-4,1.323823929E0,1.025349617E0,1.674470570E0
5.222746262E0,2.027833462E-2,1.279919624E0,1.016010284E0,1.634283437E0
5.227488553E0,6.022870541E-2,1.222087741E0,1.013547897E0,1.588837715E0
5.232230845E0,9.044003487E-2,1.083484411E0,9.988393784E-1,1.476413889E0
5.236973137E0,1.052755117E-2,9.291492105E-1,1.007834435E0,1.370824326E0
5.241715376E0,-4.028695822E-2,7.427171469E-1,1.121895790E0,1.346069078E0
5.246457668E0,-5.412495136E-2,5.845918655E-1,1.228627205E0,1.361690849E0
5.251199960E0,6.089270115E-3,4.483170509E-1,1.404691696E0,1.474511451E0
5.255942251E0,1.205373704E-1,3.083899617E-1,1.700355530E0,1.732294015E0
5.260684491E0,1.491857171E-1,1.725748479E-1,1.979249001E0,1.992351641E0
5.265426783E0,1.284268796E-1,1.444036067E-1,2.078801155E0,2.087764380E0
5.270169074E0,1.382458806E-1,1.121852398E-1,2.116418839E0,2.123894101E0
5.274911366E0,2.876242399E-1,8.143720031E-2,2.283473969E0,2.302957465E0
5.279653658E0,5.510675907E-1,3.358042240E-2,2.555868149E0,2.614816462E0
5.284395897E0,8.375105262E-1,-5.964571238E-2,2.720587730E0,2.847205488E0
5.289138189E0,1.086741686E0,-1.811567843E-1,2.780074120E0,2.990424281E0
5.293880480E0,1.255296469E0,-4.166297317E-1,2.782196999E0,3.080579442E0
5.298622772E0,1.448122025E0,-6.458868980E-1,2.693474770E0,3.125545331E0
5.303365012E0,1.569279313E0,-8.396847844E-1,2.339391708E0,2.939466221E0
5.308107303E0,1.623845816E0,-1.016301990E0,1.811064720E0,2.636228440E0
5.312849595E0,1.576167941E0,-1.151426911E0,1.350168228E0,2.373403370E0
5.317591887E0,1.390125155E0,-1.283543229E0,1.193313599E0,2.236946247E0
5.322334178E0,1.146410704E0,-1.446701169E0,1.220566750E0,2.212913230E0
5.327076418E0,8.603762388E-1,-1.591787696E0,1.364764214E0,2.266410532E0
5.331818710E0,5.354212523E-1,-1.801409483E0,1.592311859E0,2.463170538E0
5.336561001E0,2.517457008E-1,-1.945259094E0,1.812282562E0,2.670538696E0
5.341303293E0,6.344252825E-2,-2.089171648E0,2.036680222E0,2.918343615E0
5.346045585E0,-2.038851380E-2,-2.231754541E0,2.217720985E0,3.146336027E0
5.350787824E0,-6.669208407E-2,-2.361968517E0,2.343562126E0,3.328006393E0
5.355530116E0,-1.036744714E-1,-2.492443323E0,2.459757805E0,3.503345626E0
5.360272408E0,-1.205720603E-1,-2.590167284E0,2.587910652E0,3.663439057E0
5.365014699E0,-6.555762887E-2,-2.626808167E0,2.639599800E0,3.724500779E0
5.369756991E0,1.129918098E-1,-2.569255590E0,2.643676758E0,3.688206643E0
5.374499230E0,3.492737412E-1,-2.441569805E0,2.573930740E0,3.564880744E0
5.379241522E0,4.768589139E-1,-2.317935705E0,2.485480309E0,3.431884719E0
5.383983814E0,5.274598002E-1,-2.202995300E0,2.277940750E0,3.212540458E0
5.388726105E0,5.587351918E-1,-2.067597628E0,1.841464043E0,2.824559220E0
5.393468345E0,5.873079896E-1,-1.975565910E0,1.343693733E0,2.460346356E0
5.398210637E0,6.246078014E-1,-1.849624157E0,8.229331970E-1,2.118599413E0
5.402952928E0,6.241800785E-1,-1.727307320E0,2.552509308E-1,1.854277321E0
5.407695220E0,5.920107365E-1,-1.617522717E0,-2.708835602E-1,1.743626782E0
5.412437512E0,5.103675723E-1,-1.517267704E0,-7.125434875E-1,1.752225604E0
5.417179751E0,4.693205059E-1,-1.392455578E0,-1.081860542E0,1.824723679E0
5.421922043E0,4.971371889E-1,-1.194858551E0,-1.367026329E0,1.882443446E0
5.426664335E0,5.315729380E-1,-1.044004798E0,-1.549038887E0,1.942173339E0
5.431406626E0,4.912307560E-1,-8.917903900E-1,-1.778698921E0,2.049479838E0
5.436148918E0,4.428727031E-1,-7.716647387E-1,-1.869470596E0,2.070391994E0
5.440891210E0,4.152965546E-1,-6.524446011E-1,-1.948270321E0,2.096166126E0
5.445633449E0,3.707513213E-1,-5.268071890E-1,-2.043813705E0,2.142931828E0
5.450375741E0,3.766453266E-1,-3.922282457E-1,-2.084354401E0,2.154121159E0
5.455118033E0,3.951075375E-1,-2.941456437E-1,-2.112988949E0,2.169643732E0
5.459860324E0,4.384125173E-1,-2.014263272E-1,-2.091468334E0,2.146396490E0
5.464602616E0,4.803803563E-1,-1.046590805E-1,-1.988752365E0,2.048622654E0
5.469344855E0,5.307767987E-1,-3.034299612E-2,-1.919689655E0,1.991947058E0
5.474087147E0,5.347025394E-1,5.243927240E-2,-1.848343849E0,1.924845882E0
5.478829439E0,4.612369537E-1,1.004149318E-1,-1.789033890E0,1.850260778E0
5.483571730E0,3.273934424E-1,1.852463484E-1,-1.734541893E0,1.774862883E0
5.488314022E0,2.146323323E-1,2.300848961E-1,-1.677646637E0,1.706899041E0
5.493056314E0,1.061566174E-1,2.181512117E-1,-1.644634247E0,1.662432250E0
5.497798553E0,3.060424328E-2,1.851857901E-1,-1.690438271E0,1.700826841E0
5.502540845E0,-4.588282108E-2,1.431100368E-1,-1.743230820E0,1.749696947E0
5.507283137E0,-7.623112202E-2,7.271254063E-2,-1.834116459E0,1.837139484E0
5.512025428E0,-1.044600010E-1,-1.177608967E-2,-1.941572189E0,1.944415885E0
5.516767720E0,-1.051967144E-1,-8.902841806E-2,-2.091931820E0,2.096466348E0
5.521510012E0,-1.173151135E-1,-1.422396302E-1,-2.213469028E0,2.221134865E0
5.526252251E0,-2.176344395E-2,-1.833422184E-1,-2.308674812E0,2.316045640E0
5.530994543E0,1.209915876E-1,-1.884294748E-1,-2.380037785E0,2.390548993E0
5.535736835E0,3.080838323E-1,-1.743577123E-1,-2.377420425E0,2.403631448E0
5.540479126E0,3.838735521E-1,-1.436429024E-1,-2.353540421E0,2.388963101E0
5.545221418E0,3.772873580E-1,-6.522858143E-2,-2.351470470E0,2.382438644E0
5.549963710E0,3.651742339E-1,-2.529323101E-2,-2.282698631E0,2.311861806E0
5.554706001E0,4.243957400E-1,4.786765575E-2,-2.156841278E0,2.198719481E0
5.559448241E0,4.953980446E-1,1.731550694E-1,-2.038485050E0,2.104952066E0
5.564190533E0,5.787127018E-1,2.834851742E-1,-1.901262760E0,2.007504002E0
5.568932824E0,6.966960430E-1,4.266495705E-1,-1.735552788E0,1.918217587E0
5.573675116E0,8.671536446E-1,5.477045774E-1,-1.577167511E0,1.881327485E0
5.578417408E0,1.045622706E0,7.042993307E-1,-1.464292526E0,1.932231092E0
5.583159699E0,1.139483809E0,7.579743862E-1,-1.406409264E0,1.962380070E0
5.587901939E0,1.165987730E0,8.048158884E-1,-1.393885612E0,1.987504239E0
5.592644230E0,1.182901025E0,8.188714981E-1,-1.352554321E0,1.974641374E0
5.597386522E0,1.132561445E0,8.051757812E-1,-1.311191559E0,1.910556665E0
5.602128814E0,1.076748252E0,8.046611547E-1,-1.274649620E0,1.852457294E0
5.606871105E0,1.017204762E0,7.576336861E-1,-1.259731293E0,1.787634543E0
5.611613397E0,9.822057486E-1,7.241754532E-1,-1.206695557E0,1.716179590E0
5.616355689E0,9.356866479E-1,6.948428154E-1,-1.161055565E0,1.645103664E0
5.621097980E0,9.923022985E-1,7.273006439E-1,-1.144366264E0,1.680239336E0
5.625840220E0,1.010750294E0,7.498315573E-1,-1.120744705E0,1.685209843E0
5.630582512E0,1.022201300E0,7.794165611E-1,-1.099783897E0,1.691718148E0
5.635324803E0,1.050601244E0,7.706085443E-1,-1.040823936E0,1.667607559E0
5.640067095E0,1.090608835E0,7.471626997E-1,-9.224157333E-1,1.611995818E0
5.644809387E0,1.155922771E0,7.373557091E-1,-7.111663818E-1,1.544541523E0
5.649551678E0,1.167113304E0,6.737886667E-1,-5.339145660E-1,1.449554896E0
5.654293970E0,1.236406922E0,6.616058350E-1,-4.671421051E-1,1.478054838E0
5.659036262E0,1.258402586E0,6.071580648E-1,-4.174308777E-1,1.458240900E0
5.663778501E0,1.195183516E0,5.700073242E-1,-3.297071457E-1,1.364580077E0
5.668520793E0,1.147860527E0,5.069227219E-1,-2.445859909E-1,1.278427449E0
5.673263085E0,1.123917341E0,4.703452587E-1,-1.572265625E-1,1.228468577E0
5.678005376E0,1.121228099E0,4.287567139E-1,-2.690792084E-2,1.200711791E0
5.682747668E0,1.089653373E0,3.698905706E-1,1.176633835E-1,1.156723035E0
5.687489960E0,9.909675121E-1,3.746138811E-1,2.358627319E-1,1.085349436E0
5.692232251E0,9.328426123E-1,3.588091135E-1,3.397102356E-1,1.055624158E0
5.696974543E0,8.627591133E-1,3.580822945E-1,4.125251770E-1,1.021152897E0
5.701716835E0,8.169382811E-1,4.032769203E-1,4.950428009E-1,1.036864410E0
5.706459074E0,8.075742126E-1,4.537308812E-1,5.944433212E-1,1.100641033E0
5.711201366E0,7.989922762E-1,5.046688914E-1,6.389942169E-1,1.140786113E0
5.715943658E0,8.178147674E-1,5.419813991E-1,6.168155670E-1,1.158890105E0
5.720685949E0,8.163073063E-1,6.089593172E-1,6.140613556E-1,1.189226815E0
5.725428241E0,7.969576716E-1,6.818108559E-1,5.661392212E-1,1.191856196E0
5.730170533E0,8.124105930E-1,7.657234669E-1,4.754610062E-1,1.213427611E0
5.734912824E0,8.194801807E-1,8.920308352E-1,3.803062439E-1,1.269606087E0
5.739655116E0,8.443629742E-1,9.341465235E-1,2.854328156E-1,1.291143079E0
5.744397355E0,8.985704780E-1,9.831536412E-1,3.151245117E-1,1.368694065E0
5.749139647E0,9.433125854E-1,1.022204399E0,3.544092178E-1,1.435390665E0
5.753881939E0,9.926786423E-1,1.063197970E0,3.936862946E-1,1.506913969E0
5.758624230E0,9.700752497E-1,1.084426880E0,3.803625107E-1,1.503896036E0
5.763366522E0,9.666087627E-1,1.121852398E0,3.288602829E-1,1.516916078E0
5.768108814E0,8.964359760E-1,1.120465636E0,2.607774734E-1,1.458439437E0
5.772851105E0,8.671700954E-1,1.106546283E0,2.717781067E-1,1.431884070E0
5.777593397E0,8.903462887E-1,1.087081671E0,2.637090683E-1,1.429687219E0
5.782335689E0,8.528987169E-1,1.052399516E0,2.365293503E-1,1.375109849E0
5.787077980E0,8.165069818E-1,9.665074944E-1,2.332458496E-1,1.286555096E0
5.791820220E0,7.619045973E-1,8.556078076E-1,2.753505707E-1,1.178295919E0
5.796562512E0,7.728154659E-1,7.412661910E-1,3.627834320E-1,1.130633066E0
5.801304803E0,8.136509061E-1,6.258785725E-1,4.572753906E-1,1.123767132E0
5.806047095E0,8.272769451E-1,5.380665064E-1,5.803804398E-1,1.144877358E0
5.810789387E0,8.089659810E-1,4.466459751E-1,6.890382767E-1,1.152689174E0
5.815531678E0,7.444329262E-1,3.588093519E-1,7.689247131E-1,1.128791277E0
5.820273970E0,6.722993255E-1,2.459079027E-1,8.488063812E-1,1.110373519E0
5.825016262E0,7.149835825E-1,1.726871729E-1,9.335117340E-1,1.188472356E0
5.829758553E0,8.080337048E-1,1.893668175E-1,9.967622757E-1,1.297040205E0
5.834500845E0,9.227957726E-1,1.812783480E-1,1.048143387E0,1.408196874E0
5.839243137E0,1.021106482E0,1.341166496E-1,1.111597061E0,1.515352681E0
5.843985428E0,1.052848935E0,6.702566147E-2,1.218214989E0,1.611530663E0
5.848727720E0,1.087518573E0,1.564741135E-3,1.399038315E0,1.772006575E0
5.853470012E0,1.046562195E0,-7.420182228E-2,1.577507973E0,1.894552650E0
5.858212251E0,1.028534412E0,-1.242500544E-1,1.677153587E0,1.971335910E0
5.862954543E0,9.785801172E-1,-1.699639559E-1,1.690909386E0,1.961040882E0
5.867696835E0,8.490483761E-1,-1.895006895E-1,1.580604553E0,1.804190791E0
5.872439126E0,6.305313110E-1,-2.400233746E-1,1.427673340E0,1.579060518E0
5.877181418E0,3.685734272E-1,-2.924841642E-1,1.244087219E0,1.330092616E0
5.881923710E0,1.777020693E-1,-3.082749844E-1,1.044150352E0,1.103114432E0
5.886666001E0,2.844512463E-2,-2.824524641E-1,8.205881119E-1,8.683048825E-1
5.891408293E0,-1.013844013E-1,-2.411191463E-1,5.996141434E-1,6.541822074E-1
5.896150585E0,-3.004263639E-1,-2.463009357E-1,4.911642075E-1,6.262287360E-1
5.900892876E0,-5.782024860E-1,-2.262800932E-1,4.879226685E-1,7.896767224E-1
5.905635168E0,-7.221955061E-1,-1.286542416E-1,5.945034027E-1,9.442206091E-1
5.910377460E0,-8.096855879E-1,1.031744480E-2,6.959457397E-1,1.067725467E0
5.915119751E0,-8.409649134E-1,1.687545776E-1,7.755231857E-1,1.156346101E0
5.919862043E0,-7.732080221E-1,3.584152460E-1,9.384708405E-1,1.267690677E0
5.924604335E0,-6.254564524E-1,5.218318701E-1,1.163194656E0,1.420044395E0
5.929346626E0,-4.307872057E-1,6.780776978E-1,1.428177834E0,1.638614935E0
5.934088866E0,-1.746555567E-1,8.175157309E-1,1.690381050E0,1.885795490E0
5.938831210E0,1.457898617E-1,8.827538490E-1,1.904458046E0,2.104155291E0
5.943573449E0,3.878650665E-1,9.194755554E-1,2.125568390E0,2.348172819E0
5.948315741E0,5.476028323E-1,9.016202688E-1,2.349001884E0,2.574994723E0
5.953058033E0,5.918952227E-1,8.339637518E-1,2.493515968E0,2.695080217E0
5.957800324E0,5.494272709E-1,7.024304867E-1,2.513724327E0,2.667224945E0
5.962542616E0,4.746229649E-1,5.166584253E-1,2.361861229E0,2.463857007E0
5.967284908E0,3.234312534E-1,2.267102003E-1,2.131196976E0,2.167488371E0
5.972027199E0,1.761169434E-1,-9.066462517E-2,1.840756416E0,1.851383655E0
5.976769491E0,4.596352577E-2,-4.854745865E-1,1.488014221E0,1.565881395E0
5.981511783E0,-6.310343742E-2,-8.881690502E-1,1.147007942E0,1.452051488E0
5.986254074E0,-1.490485668E-1,-1.260393977E0,8.343763351E-1,1.518878640E0
5.990996366E0,-2.023674250E-1,-1.590209484E0,5.572404861E-1,1.697125728E0
5.995738658E0,-3.256118298E-1,-1.880283237E0,4.543218613E-1,1.961605584E0
6.000480949E0,-4.317482710E-1,-2.042327404E0,4.036207199E-1,2.126127343E0
6.005223241E0,-5.601440668E-1,-2.119626045E0,3.574781418E-1,2.221343415E0
6.009965533E0,-6.210877895E-1,-2.107815504E0,3.783121109E-1,2.229743549E0
6.014707824E0,-6.832374334E-1,-2.045855045E0,5.069103241E-1,2.215692743E0
6.019450116E0,-8.366637230E-1,-1.965492606E0,6.811981201E-1,2.242141443E0
6.024192408E0,-9.846087694E-1,-1.883879423E0,7.459287643E-1,2.252746286E0
6.028934699E0,-1.023392320E0,-1.791505933E0,7.683506012E-1,2.201633029E0
6.033676991E0,-1.041320801E0,-1.712280750E0,6.601028442E-1,2.109973967E0
6.038419283E0,-1.041353822E0,-1.600614190E0,4.595079422E-1,1.964059856E0
6.043161574E0,-1.031449437E0,-1.540062070E0,2.621870041E-1,1.872009921E0
6.047903866E0,-9.476823807E-1,-1.475416660E0,9.193134308E-2,1.755963436E0
6.052646158E0,-8.242782354E-1,-1.375316143E0,-1.079368591E-2,1.603448037E0
6.057388449E0,-7.169193029E-1,-1.234993219E0,-1.179075241E-1,1.432858584E0
6.062130741E0,-5.953570604E-1,-1.076037526E0,-1.602134705E-1,1.240151258E0
6.066873033E0,-4.749572277E-1,-8.985244632E-1,-2.718677521E-1,1.052065898E0
6.071615324E0,-3.924996853E-1,-7.812634706E-1,-3.860301971E-1,9.557446974E-1
6.076357616E0,-2.768900394E-1,-6.164808273E-1,-5.243749619E-1,8.553863484E-1
6.081099908E0,-2.219237089E-1,-5.381019115E-1,-6.104755402E-1,8.434952193E-1
6.085842199E0,-2.252182961E-1,-4.672136307E-1,-6.730985641E-1,8.497491010E-1
6.090584491E0,-1.745468378E-1,-3.822045326E-1,-7.553873062E-1,8.643823724E-1
6.095326783E0,-8.923196793E-2,-3.500789404E-1,-7.903881073E-1,8.690402573E-1
6.100069074E0,-2.770423889E-4,-3.086344004E-1,-8.331346512E-1,8.884641900E-1
6.104811366E0,9.726881981E-2,-2.842019796E-1,-7.855424881E-1,8.410166402E-1
6.109553658E0,2.036749125E-1,-2.839826345E-1,-7.409143448E-1,8.191969684E-1
6.114295949E0,3.024629354E-1,-3.008073568E-1,-7.039594650E-1,8.231207819E-1
6.119038241E0,3.845373392E-1,-3.298616409E-1,-6.315412521E-1,8.096431440E-1
6.123780533E0,4.311716557E-1,-3.663070202E-1,-5.188455582E-1,7.676526186E-1
6.128522824E0,5.502723455E-1,-4.052420855E-1,-3.897953033E-1,7.867408599E-1
6.133265116E0,6.651848555E-1,-4.252381325E-1,-2.706995010E-1,8.346116349E-1
6.138007408E0,7.157878876E-1,-4.959204197E-1,-1.711139679E-1,8.874510424E-1
6.142749699E0,6.878652573E-1,-5.767121315E-1,-8.618545532E-2,9.017668365E-1
6.147491991E0,5.963648558E-1,-6.963341236E-1,-8.990669250E-2,9.212032709E-1
6.152234283E0,5.113925934E-1,-7.995952368E-1,-9.598445892E-2,9.539852953E-1
6.156976574E0,4.528131485E-1,-9.342650175E-1,-1.449403763E-1,1.048283637E0
6.161718866E0,3.851549625E-1,-1.038180947E0,-2.270736694E-1,1.130365638E0
6.166461158E0,3.302881718E-1,-1.149740696E0,-2.561864853E-1,1.223366445E0
6.171203449E0,2.646288872E-1,-1.235470057E0,-2.801113129E-1,1.294170412E0
6.175945741E0,2.653055191E-1,-1.285673857E0,-3.561811447E-1,1.360223986E0
6.180688033E0,2.972592115E-1,-1.295373917E0,-4.364137650E-1,1.398861536E0
6.185430324E0,3.276492357E-1,-1.285866499E0,-5.685844421E-1,1.443639478E0
6.190172616E0,2.875692844E-1,-1.235497236E0,-7.573881149E-1,1.477425555E0
6.194914908E0,1.966793537E-1,-1.184637070E0,-9.549379349E-1,1.534260152E0
6.199657199E0,1.178209782E-1,-1.140044689E0,-1.106218338E0,1.592891298E0
6.204399491E0,4.643046856E-2,-1.060595989E0,-1.271129608E0,1.656137108E0
6.209141783E0,1.087222099E-1,-9.244014025E-1,-1.500029564E0,1.765340524E0
6.213884074E0,1.550006866E-1,-8.175359964E-1,-1.711759567E0,1.903289556E0
6.218626366E0,5.032622814E-2,-7.326076031E-1,-1.885023117E0,2.023007361E0
6.223368658E0,-1.050109863E-1,-6.883815527E-1,-2.041509151E0,2.157001642E0
6.228110949E0,-1.893297434E-1,-5.768804550E-1,-2.205265045E0,2.287319551E0
6.232853241E0,-1.842305660E-1,-4.434403181E-1,-2.393160820E0,2.440860284E0
6.237595533E0,-2.220957279E-1,-3.622356653E-1,-2.559856892E0,2.594881210E0
6.242337824E0,-2.918667793E-1,-2.783071995E-1,-2.681610107E0,2.711765824E0
6.247080116E0,-3.940854073E-1,-2.181628942E-1,-2.765710831E0,2.802151808E0
6.251822408E0,-4.860644341E-1,-2.034721375E-1,-2.797895432E0,2.847082435E0
6.256564699E0,-5.633126497E-1,-1.840834618E-1,-2.876287460E0,2.936705197E0
6.261306991E0,-6.118446589E-1,-1.697804928E-1,-2.886075974E0,2.955099631E0
6.266049283E0,-6.199188232E-1,-1.370512247E-1,-2.793820858E0,2.865051024E0
6.270791626E0,-5.496177673E-1,-8.159971237E-2,-2.613955021E0,2.672358332E0
6.275533918E0,-4.564461708E-1,-2.319073677E-2,-2.389581680E0,2.432895708E0
6.280276210E0,-3.450442553E-1,3.295743465E-2,-2.204326630E0,2.231411576E0
6.285018501E0,-2.721873522E-1,8.894395828E-2,-2.029272079E0,2.049376040E0
6.289760793E0,-2.418224812E-1,1.037867069E-1,-1.866586208E0,1.885044792E0
6.294503085E0,-2.197589874E-1,1.417491436E-1,-1.682592392E0,1.702792997E0
6.299245376E0,-1.598602533E-1,1.762378216E-1,-1.481926441E0,1.500906742E0
6.303987668E0,-9.771144390E-2,1.997550726E-1,-1.223843575E0,1.243882113E0
6.308729960E0,7.570028305E-3,2.476495504E-1,-9.584989548E-1,9.900039654E-1
6.313472251E0,1.035792828E-1,2.597882748E-1,-6.571130753E-1,7.141541915E-1
6.318214543E0,7.109200954E-2,2.861696482E-1,-4.320182800E-1,5.230553849E-1
6.322956835E0,1.602935791E-2,2.860722542E-1,-3.069334030E-1,4.198837801E-1
6.327699126E0,-3.717350960E-2,3.003414869E-1,-2.123384476E-1,3.696951378E-1
6.332441418E0,-6.658446789E-2,3.315172195E-1,-1.720695496E-1,3.794009595E-1
6.337183710E0,-5.771648884E-2,3.559467793E-1,-1.549987793E-1,3.924970373E-1
6.341926001E0,-3.455936909E-2,4.217344522E-1,-1.611461639E-1,4.527939756E-1
6.346668293E0,5.752432346E-2,4.934195280E-1,-2.049703598E-1,5.373869433E-1
6.351410585E0,1.986545324E-1,5.952861309E-1,-3.081274033E-1,6.991220906E-1
6.356152928E0,2.564969063E-1,6.511726379E-1,-4.563989639E-1,8.355336508E-1
6.360895220E0,6.079220772E-2,6.663662195E-1,-6.140499115E-1,9.081833102E-1
6.365637512E0,-1.302633286E-1,6.916493177E-1,-7.788352966E-1,1.049729362E0
6.370379803E0,-2.195000648E-1,6.914060116E-1,-9.270420074E-1,1.177127620E0
6.375122095E0,-2.436704636E-1,7.139062881E-1,-1.056516647E0,1.298177534E0
6.379864387E0,-2.920241356E-1,6.970708370E-1,-1.095703125E0,1.331071443E0
6.384606678E0,-3.672909737E-1,6.457947493E-1,-1.054359436E0,1.289816785E0
6.389348970E0,-4.338351488E-1,5.529490709E-1,-9.445886612E-1,1.177375620E0
6.394091262E0,-4.797408581E-1,4.615902901E-1,-8.525476456E-1,1.081690517E0
6.398833553E0,-5.241706371E-1,3.454830647E-1,-7.949571609E-1,1.012951278E0
6.403575845E0,-5.140172243E-1,1.998554468E-1,-7.047100067E-1,8.948587040E-1
6.408318137E0,-5.612858534E-1,6.770777702E-2,-5.793485641E-1,8.094880549E-1
6.413060428E0,-5.389093161E-1,-7.750320435E-2,-4.235954285E-1,6.898283008E-1
6.417802772E0,-5.280908346E-1,-1.905580759E-1,-3.019590378E-1,6.374727997E-1
6.422545064E0,-5.334569216E-1,-2.910310030E-1,-1.736345291E-1,6.320002228E-1
6.427287355E0,-5.904392004E-1,-3.793145418E-1,-1.457214355E-2,7.019332720E-1
6.432029647E0,-5.977088213E-1,-4.319602251E-1,2.304134369E-1,7.726162198E-1
6.436771939E0,-5.971710682E-1,-4.757051468E-1,5.160484314E-1,9.215284341E-1
6.441514230E0,-5.521247387E-1,-4.345686436E-1,8.161973953E-1,1.076972526E0
6.446256522E0,-4.957704544E-1,-3.952279091E-1,1.056836128E0,1.232435007E0
6.450998814E0,-5.904500484E-1,-3.844815493E-1,1.226191521E0,1.414214611E0
6.455741105E0,-7.111958265E-1,-3.713985682E-1,1.345956802E0,1.566951216E0
6.460483397E0,-8.024019003E-1,-3.679347038E-1,1.370832443E0,1.630462003E0
6.465225689E0,-8.208853006E-1,-3.236300945E-1,1.327217102E0,1.593767345E0
6.469967980E0,-7.621554136E-1,-2.024029493E-1,1.274887085E0,1.499061342E0
6.474710324E0,-7.173786163E-1,-9.731853008E-2,1.192250252E0,1.394834628E0
6.479452616E0,-6.868901253E-1,2.531516552E-2,1.095996857E0,1.293703216E0
6.484194908E0,-6.901909113E-1,1.586008072E-1,9.453868866E-1,1.181217201E0
6.488937199E0,-6.434041262E-1,2.719422579E-1,7.834701538E-1,1.049641340E0
6.493679491E0,-5.919725895E-1,3.896796703E-1,6.962823868E-1,9.935245112E-1
6.498421783E0,-5.096604824E-1,5.073761940E-1,6.214990616E-1,9.504974977E-1
6.503164074E0,-4.280531406E-1,6.418789625E-1,6.427059174E-1,1.004145901E0
6.507906366E0,-4.170644283E-1,8.241437674E-1,7.429838181E-1,1.185403155E0
6.512648658E0,-4.077516794E-1,9.198259115E-1,9.772214890E-1,1.402605781E0
6.517391001E0,-3.237800598E-1,1.040979743E0,1.242484093E0,1.652948600E0
6.522133293E0,-2.534364462E-1,1.122680187E0,1.462326050E0,1.860924048E0
6.526875585E0,-2.008004189E-1,1.155243754E0,1.579566002E0,1.967215721E0
6.531617876E0,-1.531857252E-1,1.141035318E0,1.623167038E0,1.989999673E0
6.536360168E0,-1.584498882E-1,1.020329475E0,1.581279755E0,1.888550838E0
6.541102460E0,-1.285241842E-1,8.529951572E-1,1.473088264E0,1.707075932E0
6.545844751E0,-1.268144846E-1,6.748744249E-1,1.300897598E0,1.471010525E0
6.550587043E0,-1.977590322E-1,4.524290562E-1,1.179338455E0,1.278530359E0
6.555329335E0,-3.259354830E-1,2.500243187E-1,1.148805618E0,1.220041166E0
6.560071626E0,-5.318629742E-1,8.161461353E-2,1.228125572E0,1.340832424E0
6.564813970E0,-7.473976612E-1,-6.995022297E-2,1.407437325E0,1.595110065E0
6.569556262E0,-9.854365587E-1,-1.858136654E-1,1.590858459E0,1.880543158E0
6.574298553E0,-1.124785781E0,-3.404972553E-1,1.816589355E0,2.163579978E0
6.579040845E0,-1.086595297E0,-4.621934891E-1,2.079836845E0,2.391659145E0
6.583783137E0,-9.347468615E-1,-5.888998508E-1,2.299403191E0,2.551040917E0
6.588525428E0,-6.703156233E-1,-6.578087807E-1,2.561600685E0,2.728338963E0
6.593267720E0,-2.777134180E-1,-7.233303785E-1,2.737402916E0,2.844943989E0
6.598010012E0,1.700727940E-1,-6.864906549E-1,2.810228348E0,2.897857405E0
6.602752355E0,6.666988730E-1,-6.087769270E-1,2.847146034E0,2.986860773E0
6.607494647E0,1.081780910E0,-5.443880558E-1,2.850591660E0,3.097173083E0
6.612236939E0,1.462272406E0,-5.282784700E-1,2.837347031E0,3.235406760E0
6.616979230E0,1.745162845E0,-5.283313990E-1,2.754797935E0,3.303579738E0
6.621721522E0,1.979804516E0,-5.292544365E-1,2.562317848E0,3.281037783E0
6.626463814E0,2.104937077E0,-5.373624563E-1,2.302945137E0,3.165924006E0
6.631206105E0,2.147210360E0,-5.688925982E-1,2.069865227E0,3.036197157E0
6.635948397E0,2.068378925E0,-5.660424232E-1,1.872456551E0,2.846873537E0
6.640690741E0,1.777286053E0,-6.722491980E-1,1.648392677E0,2.515524422E0
6.645433033E0,1.307072163E0,-8.206292391E-1,1.510033607E0,2.159183059E0
6.650175324E0,7.287642360E-1,-1.042639375E0,1.416599274E0,1.903929536E0
6.654917616E0,1.581608057E-1,-1.262406230E0,1.341696739E0,1.849009051E0
6.659659908E0,-2.578762770E-1,-1.459174871E0,1.258996010E0,1.944418276E0
6.664402199E0,-5.011870861E-1,-1.528298736E0,1.113533020E0,1.956231404E0
6.669144491E0,-5.769109726E-1,-1.554112673E0,9.341897964E-1,1.902840783E0
6.673886835E0,-5.977703333E-1,-1.539538145E0,7.426347733E-1,1.810804649E0
6.678629126E0,-5.905978680E-1,-1.537767529E0,5.963335037E-1,1.751898531E0
6.683371418E0,-5.680439472E-1,-1.565991044E0,5.167570114E-1,1.744144399E0
6.688113710E0,-5.977233648E-1,-1.560099602E0,4.655704498E-1,1.734341325E0
6.692856001E0,-5.894513130E-1,-1.537460566E0,4.355697632E-1,1.703220144E0
6.697598293E0,-4.913281202E-1,-1.505693078E0,3.884506226E-1,1.630769405E0
6.702340585E0,-4.114123583E-1,-1.436418772E0,3.624897003E-1,1.537516764E0
6.707082928E0,-3.089255095E-1,-1.389802575E0,4.510011673E-1,1.493448433E0
6.711825220E0,-2.073184252E-1,-1.251231790E0,6.276569366E-1,1.415102523E0
6.716567512E0,-5.579948425E-3,-1.097537279E0,7.538022995E-1,1.331479298E0
6.721309803E0,2.008991241E-1,-9.288290739E-1,8.774023056E-1,1.293413589E0
6.726052095E0,3.887097836E-1,-7.357163429E-1,9.579277039E-1,1.268857486E0
6.730794387E0,5.872068405E-1,-5.828394890E-1,1.050541878E0,1.337218000E0
6.735536730E0,7.657513618E-1,-4.534679651E-1,1.081190109E0,1.400350098E0
6.740279022E0,9.178239703E-1,-3.402000666E-1,1.002183914E0,1.400895972E0
6.745021314E0,1.000621319E0,-2.310864925E-1,9.141187668E-1,1.374866215E0
6.749763605E0,1.002203107E0,-1.788887978E-1,9.078893661E-1,1.364065750E0
6.754505897E0,1.020116568E0,-1.361714602E-1,1.028820992E0,1.455215830E0
6.759248189E0,1.123139620E0,-1.296970844E-1,1.145259857E0,1.609311679E0
6.763990480E0,1.291871548E0,-9.510147572E-2,1.238112450E0,1.791898107E0
6.768732824E0,1.433633089E0,-5.887162685E-2,1.211905479E0,1.878159896E0
6.773475116E0,1.496681333E0,-6.398487091E-2,1.007126808E0,1.805118689E0
6.778217408E0,1.474706411E0,-1.078990698E-1,7.173566818E-1,1.643472488E0
6.782959699E0,1.337109566E0,-1.786789894E-1,3.642978668E-1,1.397319258E0
6.787701991E0,1.163273215E0,-3.121571541E-1,-2.322101593E-2,1.204651766E0
6.792444283E0,9.439538717E-1,-4.796078205E-1,-3.398847580E-1,1.112022582E0
6.797186626E0,7.918242812E-1,-6.355336905E-1,-5.426979065E-1,1.151264427E0
6.801928918E0,7.114610076E-1,-7.322980165E-1,-6.461086273E-1,1.208260530E0
6.806671210E0,6.617401242E-1,-8.586810827E-1,-7.625961304E-1,1.325438060E0
6.811413501E0,4.965900183E-1,-9.595601559E-1,-9.184589386E-1,1.418070577E0
6.816155793E0,3.477445841E-1,-1.017938137E0,-1.144748688E0,1.570851331E0
6.820898137E0,2.101665735E-1,-1.050226808E0,-1.391251564E0,1.755769703E0
6.825640428E0,1.265372038E-1,-1.089525104E0,-1.672398567E0,1.999998396E0
6.830382720E0,1.586215496E-1,-1.209355116E0,-1.981136799E0,2.326500292E0
6.835125012E0,2.487142086E-1,-1.294412851E0,-2.145379543E0,2.517938993E0
6.839867303E0,4.252171516E-1,-1.272680402E0,-2.215618610E0,2.590268491E0
6.844609595E0,6.256532073E-1,-1.153674603E0,-2.213551044E0,2.573366521E0
6.849351939E0,8.021239638E-1,-9.374531507E-1,-2.139278412E0,2.469561375E0
6.854094230E0,8.213407397E-1,-7.292916775E-1,-2.004758835E0,2.285940714E0
6.858836522E0,6.633623838E-1,-3.879499435E-1,-1.797926903E0,1.955273883E0
6.863578814E0,5.107313395E-1,1.017165184E-2,-1.616877556E0,1.695654149E0
6.868321105E0,4.625132084E-1,4.823150635E-1,-1.653229713E0,1.783175475E0
6.873063449E0,3.621715307E-1,1.084180593E0,-1.919436455E0,2.234021504E0
6.877805741E0,5.346568823E-1,1.798227072E0,-2.650529385E0,3.247273410E0
6.882548033E0,1.002028108E0,2.595585346E0,-3.646108150E0,4.586417803E0
6.887290324E0,1.493228197E0,3.250705957E0,-4.574176788E0,5.806884962E0
6.892032616E0,1.846452117E0,3.568529367E0,-5.126578331E0,6.513493122E0
6.896774908E0,1.822165728E0,3.391360998E0,-5.157601833E0,6.436029368E0
6.901517251E0,1.650667191E0,2.934272528E0,-4.825093269E0,5.883551861E0
6.906259543E0,1.665047884E0,2.333228111E0,-4.389493465E0,5.242517597E0
6.911001835E0,1.834869266E0,1.637883186E0,-3.687625885E0,4.432605466E0
6.915744126E0,1.930147409E0,9.428107738E-1,-2.707170963E0,3.455884229E0
6.920486418E0,1.873144984E0,2.820959091E-1,-1.866547585E0,2.659370249E0
6.925228762E0,1.830039740E0,-3.031535149E-1,-1.466815948E0,2.364845984E0
6.929971053E0,1.793248177E0,-7.979998589E-1,-1.069721222E0,2.235362675E0
6.934713345E0,1.860856295E0,-1.194242001E0,-5.815982819E-1,2.286319459E0
6.939455637E0,1.747112513E0,-1.480776191E0,-1.408672333E-2,2.290261709E0
6.944197928E0,1.392979145E0,-1.712998629E0,3.650712967E-1,2.237863323E0
6.948940272E0,9.465526342E-1,-1.902741313E0,4.292535782E-1,2.168097098E0
6.953682564E0,6.079466343E-1,-2.001634121E0,2.861347198E-1,2.111400327E0
6.958424855E0,4.654083252E-1,-2.021111250E0,2.489948273E-1,2.088897800E0
6.963167147E0,5.454480052E-1,-1.984507084E0,2.649555206E-1,2.075086340E0
6.967909491E0,5.516687632E-1,-1.886572003E0,3.099222183E-1,1.989860329E0
6.972651783E0,6.183310151E-1,-1.805684686E0,3.024120331E-1,1.932429421E0
6.977394074E0,6.950323582E-1,-1.695729375E0,2.039966583E-1,1.843958440E0
6.982136366E0,7.078481913E-1,-1.616065741E0,3.087825775E-1,1.791106982E0
6.986878658E0,8.728785515E-1,-1.518581271E0,5.591678619E-1,1.838661127E0
6.991621001E0,1.200584412E0,-1.434312940E0,7.925281525E-1,2.031442200E0
6.996363293E0,1.498152614E0,-1.325037956E0,9.660358429E-1,2.221128562E0
7.001105585E0,1.742515802E0,-1.190897226E0,1.115815163E0,2.387392092E0
7.005847876E0,1.955438614E0,-1.046499491E0,1.165509224E0,2.505456667E0
7.010590220E0,2.062644482E0,-8.990707397E-1,1.120041847E0,2.513428772E0
7.015332512E0,2.071315527E0,-7.819867134E-1,1.017772675E0,2.436742179E0
7.020074803E0,2.014440536E0,-6.566512585E-1,7.701387405E-1,2.254390212E0
7.024817095E0,1.855315208E0,-5.543107986E-1,5.350675583E-1,2.008918186E0
7.029559387E0,1.621648192E0,-4.252076149E-1,4.010086060E-1,1.723761085E0
7.034301730E0,1.365154266E0,-2.914175987E-1,3.152513504E-1,1.431067364E0
7.039044022E0,1.151843071E0,-1.700613499E-1,1.939954758E-1,1.180380264E0
7.043786314E0,9.615401030E-1,-1.091468334E-1,6.346416473E-2,9.697938446E-1
7.048528605E0,7.648512125E-1,-3.476095200E-2,-2.856349945E-2,7.661733319E-1
7.053270949E0,6.330074072E-1,6.720256805E-2,-8.457469940E-2,6.421584248E-1
7.058013241E0,5.487694740E-1,1.677417755E-1,-1.046371460E-1,5.832959551E-1
7.062755533E0,4.664126635E-1,2.189011574E-1,-1.175203323E-1,5.284595707E-1
7.067497824E0,4.048463106E-1,2.374427319E-1,-1.185102463E-1,4.840705161E-1
7.072240116E0,3.804423809E-1,2.711164951E-1,-1.292047501E-1,4.847003472E-1
7.076982460E0,4.264851809E-1,2.746927738E-1,-1.138544083E-1,5.199120654E-1
7.081724751E0,6.218762398E-1,3.032922745E-1,-3.184318542E-3,6.919005718E-1
7.086467043E0,9.000803232E-1,3.259608746E-1,2.123165131E-1,9.805474908E-1
7.091209335E0,1.132684231E0,3.404300213E-1,4.609155655E-1,1.269373595E0
7.095951678E0,1.304085612E0,3.299691677E-1,7.595510483E-1,1.544809610E0
7.100693970E0,1.453675866E0,3.042528629E-1,1.046205521E0,1.816669843E0
7.105436262E0,1.558458924E0,2.084252834E-1,1.278019905E0,2.026220668E0
7.110178553E0,1.638359189E0,1.311173439E-1,1.428913116E0,2.177890099E0
7.114920845E0,1.667441964E0,8.292436600E-3,1.391278267E0,2.171655287E0
7.119663189E0,1.825480223E0,-1.115939617E-1,1.303927422E0,2.246120650E0
7.124405480E0,1.988483548E0,-2.040188313E-1,1.272033691E0,2.369337506E0
7.129147772E0,1.992000937E0,-2.972793579E-1,1.305076599E0,2.399930766E0
7.133890064E0,1.953598976E0,-3.910403252E-1,1.302493095E0,2.380325557E0
7.138632408E0,1.813335657E0,-4.301667213E-1,1.230769157E0,2.233388084E0
7.143374699E0,1.625791311E0,-4.887385368E-1,1.156790733E0,2.054319241E0
7.148116991E0,1.356744170E0,-5.356128216E-1,1.080369949E0,1.815168054E0
7.152859283E0,9.910362959E-1,-6.116473675E-1,1.049187660E0,1.567501256E0
7.157601626E0,7.354965210E-1,-7.362306118E-1,1.024708748E0,1.460485763E0
7.162343918E0,5.767476559E-1,-9.337856770E-1,1.095263481E0,1.550546885E0
7.167086210E0,5.019830465E-1,-1.154474735E0,1.251131058E0,1.774859943E0
7.171828501E0,4.556245804E-1,-1.389543056E0,1.482795715E0,2.082572159E0
7.176570845E0,4.974259138E-1,-1.642061830E0,1.797577858E0,2.484971981E0
7.181313137E0,5.127067566E-1,-1.867243409E0,2.111961365E0,2.865283053E0
7.186055428E0,5.208528042E-1,-2.051315546E0,2.361639023E0,3.171201978E0
7.190797720E0,5.076212883E-1,-2.134976864E0,2.577949524E0,3.385502818E0
7.195540064E0,4.993636608E-1,-2.185625076E0,2.758666992E0,3.554794595E0
7.200282355E0,4.837923050E-1,-2.196254253E0,2.841619492E0,3.623863832E0
7.205024647E0,4.534151554E-1,-2.126019001E0,2.807618141E0,3.550811417E0
7.209766939E0,3.288135529E-1,-2.079996109E0,2.694829941E0,3.420030786E0
7.214509283E0,2.050259113E-1,-2.055427074E0,2.546065331E0,3.278607136E0
7.219251574E0,1.100003719E-1,-2.039885998E0,2.423163414E0,3.169377841E0
7.223993866E0,7.640457153E-2,-2.061684132E0,2.392689705E0,3.159326375E0
7.228736210E0,1.589732170E-1,-2.062865734E0,2.497331619E0,3.243046829E0
7.233478501E0,4.533207417E-1,-2.121759892E0,2.641100883E0,3.418007988E0
7.238220793E0,7.489755154E-1,-2.211125612E0,2.756746292E0,3.612435593E0
7.242963085E0,1.173118949E0,-2.337200403E0,2.860845566E0,3.875970994E0
7.247705428E0,1.479913473E0,-2.468139648E0,3.111138344E0,4.238046603E0
7.252447720E0,1.895286322E0,-2.558397532E0,3.617704391E0,4.819262727E0
7.257190012E0,2.365732670E0,-2.701467037E0,4.349680901E0,5.640420122E0
7.261932303E0,2.831056356E0,-2.823401928E0,5.101794243E0,6.481881134E0
7.266674647E0,3.233617306E0,-2.919603586E0,5.740715981E0,7.206676484E0
7.271416939E0,3.542063951E0,-3.031009197E0,6.267168045E0,7.810930104E0
7.276159230E0,3.746508360E0,-3.167150974E0,6.588457108E0,8.214312950E0
7.280901522E0,3.924779415E0,-3.306364059E0,6.707399368E0,8.445421424E0
7.285643866E0,4.013055325E0,-3.450814247E0,6.612312317E0,8.469675683E0
7.290386158E0,4.066648483E0,-3.626370907E0,6.346333504E0,8.364457232E0
7.295128449E0,4.116425514E0,-3.823044062E0,5.935738564E0,8.172736213E0
7.299870793E0,4.111464500E0,-3.997444868E0,5.418666840E0,7.889591633E0
7.304613085E0,4.041178703E0,-4.151955605E0,4.840427399E0,7.549807816E0
7.309355376E0,3.820849657E0,-4.286705494E0,4.251124382E0,7.144703955E0
7.314097668E0,3.600256681E0,-4.377972603E0,3.636281967E0,6.734317993E0
7.318840012E0,3.419352531E0,-4.416484833E0,3.029376984E0,6.354088048E0
7.323582303E0,3.220007181E0,-4.383481026E0,2.428003311E0,5.956387515E0
7.328324595E0,3.065826893E0,-4.293680191E0,1.829667091E0,5.584144141E0
7.333066887E0,2.869733810E0,-4.200034142E0,1.284476280E0,5.246478652E0
7.337809230E0,2.666700840E0,-4.059831142E0,7.874794006E-1,4.920736335E0
7.342551522E0,2.539683819E0,-3.906864405E0,3.457012177E-1,4.672589508E0
7.347293814E0,2.394537926E0,-3.748727798E0,-4.577445984E-2,4.448467971E0
7.352036105E0,2.271337986E0,-3.593046904E0,-3.989667892E-1,4.269442211E0
7.356778449E0,2.171835661E0,-3.454466581E0,-7.211809158E-1,4.143707448E0
7.361520741E0,2.100278854E0,-3.309226751E0,-9.886488914E-1,4.042224584E0
7.366263033E0,2.077772617E0,-3.255517483E0,-1.223046303E0,4.051095579E0
7.371005376E0,2.048982382E0,-3.207474470E0,-1.374187946E0,4.046555793E0
7.375747668E0,2.009050369E0,-3.196343422E0,-1.432603359E0,4.037975612E0
7.380489960E0,1.934111595E0,-3.176974535E0,-1.446124077E0,3.990642768E0
7.385232251E0,1.864888549E0,-3.190109730E0,-1.436308861E0,3.964541907E0
7.389974595E0,1.813140631E0,-3.214389563E0,-1.467744350E0,3.971656164E0
7.394716887E0,1.731023669E0,-3.206739902E0,-1.475838661E0,3.931631150E0
7.399459178E0,1.673471928E0,-3.226988077E0,-1.486953735E0,3.927466328E0
7.404201522E0,1.621334910E0,-3.201025724E0,-1.412592411E0,3.856255943E0
7.408943814E0,1.646620989E0,-3.157490253E0,-1.267160416E0,3.779788473E0
7.413686105E0,1.730658531E0,-3.101002693E0,-1.158239841E0,3.735360248E0
7.418428397E0,1.833270431E0,-3.045594215E0,-1.035521030E0,3.702543504E0
7.423170741E0,1.904828787E0,-2.998210907E0,-9.467363358E-1,3.676132620E0
7.427913033E0,1.948236465E0,-2.924848557E0,-9.110150337E-1,3.630470052E0
7.432655324E0,1.959269524E0,-2.875160933E0,-8.996572495E-1,3.593698738E0
7.437397668E0,1.971930981E0,-2.836514473E0,-9.151182175E-1,3.573760974E0
7.442139960E0,1.898018241E0,-2.743911743E0,-9.311351776E-1,3.463890532E0
7.446882251E0,1.747273088E0,-2.678573608E0,-8.473081589E-1,3.308421215E0
7.451624595E0,1.531795979E0,-2.666620255E0,-7.474822998E-1,3.164805253E0
7.456366887E0,1.244418502E0,-2.631540060E0,-6.005821228E-1,2.972251568E0
7.461109178E0,9.949703217E-1,-2.645302296E0,-3.875122070E-1,2.852675216E0
7.465851470E0,7.856409550E-1,-2.763012171E0,-1.585378647E-1,2.876908448E0
7.470593814E0,6.688551903E-1,-2.937065363E0,1.414232254E-1,3.015579669E0
7.475336105E0,5.847171545E-1,-3.150983810E0,4.526405334E-1,3.236584091E0
7.480078397E0,5.355693102E-1,-3.417001486E0,7.632694244E-1,3.541936455E0
7.484820741E0,4.904754162E-1,-3.680454016E0,1.104595184E0,3.873814453E0
7.489563033E0,4.451932907E-1,-3.932227135E0,1.457744598E0,4.217300869E0
7.494305324E0,3.908214569E-1,-4.184674263E0,1.873204231E0,4.601427408E0
7.499047616E0,3.519918919E-1,-4.409358978E0,2.224411964E0,4.951197176E0
7.503789960E0,3.221615553E-1,-4.608736992E0,2.535497665E0,5.270008837E0
7.508532251E0,3.235309124E-1,-4.754086971E0,2.715761185E0,5.484648940E0
7.513274543E0,3.349993229E-1,-4.840711594E0,2.827612877E0,5.616058036E0
7.518016887E0,2.132443190E-1,-4.837637901E0,2.861596107E0,5.624672958E0
7.522759178E0,4.411196709E-2,-4.778522015E0,2.755548477E0,5.516272829E0
7.527501470E0,-1.586631536E-1,-4.713736534E0,2.581240654E0,5.376549955E0
7.532243762E0,-3.431338072E-1,-4.590591431E0,2.278786659E0,5.136549341E0
7.536986105E0,-4.860805273E-1,-4.430409431E0,1.948531151E0,4.864316566E0
7.541728397E0,-6.123708487E-1,-4.287979603E0,1.566315651E0,4.605986523E0
7.546470741E0,-6.869046688E-1,-4.112789631E0,1.198907852E0,4.338692961E0
7.551213033E0,-7.724728584E-1,-3.916791916E0,9.131126404E-1,4.095332456E0
7.555955324E0,-8.695342541E-1,-3.652139664E0,7.254552841E-1,3.823676151E0
7.560697616E0,-8.897871971E-1,-3.388183117E0,5.951137543E-1,3.553261385E0
7.565439960E0,-7.709869146E-1,-3.136626959E0,5.148086548E-1,3.270760990E0
7.570182251E0,-5.677547455E-1,-2.902132034E0,5.276060104E-1,3.003844852E0
7.574924543E0,-4.037585258E-1,-2.727574587E0,5.187339783E-1,2.805667303E0
7.579666887E0,-3.022378683E-1,-2.548115492E0,5.169754028E-1,2.617537747E0
7.584409178E0,-2.676184177E-1,-2.401718378E0,4.911890030E-1,2.465996233E0
7.589151470E0,-2.301774025E-1,-2.268764973E0,4.604425430E-1,2.326431489E0
7.593893814E0,-1.779018641E-1,-2.160887003E0,4.844255447E-1,2.221654748E0
7.598636105E0,-1.585057974E-1,-2.061079264E0,5.271482468E-1,2.133320673E0
7.603378397E0,-2.268632650E-1,-1.993217349E0,5.957622528E-1,2.092681295E0
7.608120689E0,-3.520513773E-1,-2.043598652E0,6.854867935E-1,2.184062217E0
7.612863033E0,-4.960542917E-1,-2.073549509E0,7.508621216E-1,2.260413978E0
7.617605324E0,-5.685346127E-1,-2.195653915E0,8.875246048E-1,2.435534366E0
7.622347616E0,-5.841213465E-1,-2.314498425E0,1.064386368E0,2.613621825E0
7.627089960E0,-5.283812284E-1,-2.461396456E0,1.221727371E0,2.798263212E0
7.631832251E0,-4.776136875E-1,-2.562299252E0,1.328577042E0,2.925510083E0
7.636574543E0,-4.288204908E-1,-2.657856226E0,1.389869690E0,3.029822517E0
7.641316887E0,-3.956542015E-1,-2.642778873E0,1.422482491E0,3.027255995E0
7.646059178E0,-3.799425364E-1,-2.565047979E0,1.424149513E0,2.958382887E0
7.650801470E0,-3.572703600E-1,-2.436514378E0,1.356664658E0,2.811544667E0
7.655543814E0,-3.608394861E-1,-2.285673618E0,1.220066071E0,2.615926268E0
7.660286105E0,-3.688379526E-1,-2.152869225E0,1.016760826E0,2.409292409E0
7.665028397E0,-3.978636265E-1,-2.009161949E0,8.376445770E-1,2.212843338E0
7.669770689E0,-4.549823999E-1,-1.868780851E0,6.467914581E-1,2.029209217E0
7.674513033E0,-5.641874075E-1,-1.702981830E0,4.728822708E-1,1.855282239E0
7.679255324E0,-7.019373178E-1,-1.583592892E0,2.823781967E-1,1.755055524E0
7.683997616E0,-8.494567871E-1,-1.453173518E0,1.039476395E-1,1.686444550E0
7.688739960E0,-1.009566545E0,-1.376362324E0,1.405143738E-2,1.706984270E0
7.693482251E0,-1.110872626E0,-1.322344542E0,-2.083778381E-2,1.727155839E0
7.698224543E0,-1.189724207E0,-1.310569406E0,3.751659393E-2,1.770435921E0
7.702966887E0,-1.236674070E0,-1.360498309E0,1.365013123E-1,1.843624423E0
7.707709178E0,-1.301987052E0,-1.386518955E0,2.738304138E-1,1.921610833E0
7.712451470E0,-1.414097548E0,-1.444206119E0,4.783468246E-1,2.077069780E0
7.717193814E0,-1.544150829E0,-1.521929264E0,6.663923264E-1,2.268203959E0
7.721936105E0,-1.605839372E0,-1.581651449E0,7.926540375E-1,2.389276421E0
7.726678397E0,-1.620748043E0,-1.623642683E0,9.218320847E-1,2.472410600E0
