"Time (s)","Linear Acceleration x (m/s^2)","Linear Acceleration y (m/s^2)","Linear Acceleration z (m/s^2)","Absolute acceleration (m/s^2)"
1.021958335E-3,-2.459425698E-1,1.680179876E-1,-5.756291449E-1,6.481255313E-1
1.101295833E-2,7.690184936E-3,-5.875925481E-2,-8.189089841E-1,8.210503719E-1
2.100295833E-2,2.136367581E-1,-1.641702273E-1,-8.001212955E-1,8.442669101E-1
3.099295833E-2,2.780476758E-1,-2.061947510E-1,-6.225466186E-1,7.123138898E-1
4.098295833E-2,1.813072470E-1,-2.103144068E-1,-4.822035027E-1,5.564392918E-1
5.097295833E-2,3.173903374E-2,-1.660878217E-1,-3.843591195E-1,4.199100660E-1
6.096295833E-2,-4.956021415E-2,-9.905797273E-2,-2.188355541E-1,2.452706598E-1
7.095295833E-2,-3.519066341E-2,-7.376087129E-2,4.498263001E-3,8.184914963E-2
8.094295833E-2,4.015120363E-2,-1.167279661E-1,2.741414434E-1,3.006510738E-1
9.093295833E-2,2.065112315E-2,-7.154813871E-2,3.819348639E-1,3.891270298E-1
1.009229583E-1,-3.378263561E-2,4.689759314E-3,4.983289540E-1,4.994947514E-1
1.109139583E-1,-2.558292065E-2,5.703052551E-2,4.411051780E-1,4.455117784E-1
1.209039583E-1,-6.151559573E-2,8.968941763E-2,2.427243537E-1,2.659764501E-1
1.308939583E-1,-9.472180551E-2,1.088929895E-1,6.147762537E-3,1.444565629E-1
1.408839583E-1,-9.325117595E-2,6.427727222E-2,-1.143879104E-1,1.609718720E-1
1.508739583E-1,-9.957722375E-2,4.094176546E-2,-1.340462494E-1,1.719309414E-1
1.608639583E-1,-1.388866293E-1,2.692467391E-2,-8.653703749E-2,1.658405642E-1
1.708539583E-1,-1.176345769E-1,-2.526274905E-2,-7.621494770E-2,1.424247816E-1
1.808439583E-1,-9.635286804E-2,4.647951722E-3,-7.894442797E-2,1.246503163E-1
1.908339583E-1,-1.049374942E-1,-1.472518936E-2,-4.320975423E-2,1.144368462E-1
2.008249583E-1,-8.155806027E-2,-2.657091737E-2,-1.276681066E-2,8.672209810E-2
2.108149583E-1,-7.736387076E-2,2.392519847E-2,-2.725153327E-2,8.544138158E-2
2.208049583E-1,-9.314963540E-2,4.215769395E-2,-7.832462311E-2,1.287977963E-1
2.307949583E-1,-9.901657627E-2,3.220251694E-2,-1.018801314E-1,1.456737644E-1
2.407849583E-1,-1.164876912E-1,2.993262783E-2,-8.988690734E-2,1.501499268E-1
2.507749583E-1,-1.631227535E-1,1.708410233E-2,-4.683210433E-2,1.705700597E-1
2.607649583E-1,-1.725326594E-1,1.558414534E-2,3.479093313E-4,1.732354039E-1
2.707549583E-1,-1.248111113E-1,2.109675407E-2,4.663096011E-2,1.348974906E-1
2.807449583E-1,-7.449928327E-3,5.072678849E-2,1.232265615E-1,1.334672019E-1
2.907359583E-1,9.124756356E-2,3.258156270E-2,1.124518973E-1,1.484355257E-1
3.007259583E-1,1.665376919E-1,2.230303466E-2,6.379604638E-2,1.797280270E-1
3.107159583E-1,1.362377584E-1,5.315426007E-2,-3.065110445E-2,1.494175103E-1
3.207059583E-1,3.449867285E-2,4.972194448E-2,-8.845901728E-2,1.071794193E-1
3.306959583E-1,-7.406549295E-3,3.437578082E-3,-1.111374432E-1,1.114370010E-1
3.406859583E-1,-2.967770750E-2,-5.528980941E-2,-1.462546510E-1,1.591482085E-1
3.506759583E-1,-1.038271811E-1,-1.566321431E-1,-1.551622993E-1,2.436986888E-1
3.606659583E-1,-1.356375965E-1,-1.485664938E-1,-1.778816557E-1,2.685357409E-1
3.706559583E-1,-1.719870045E-1,-1.346856424E-1,-2.277285844E-1,3.155630843E-1
3.806469583E-1,-1.705151690E-1,-9.857835487E-2,-2.002039862E-1,2.808464900E-1
3.906369583E-1,-6.920424120E-2,-9.029372737E-2,-1.487829870E-1,1.872927159E-1
4.006269583E-1,5.058547773E-2,-6.283505648E-2,-1.869764149E-2,8.280541455E-2
4.106169583E-1,9.855838297E-2,-3.999641687E-2,5.895630598E-2,1.216113244E-1
4.206069583E-1,1.899322190E-1,-2.386321798E-2,3.899800479E-2,1.953574809E-1
4.305969583E-1,2.232583698E-1,8.275710493E-3,2.555467129E-2,2.248684688E-1
4.405869583E-1,1.766463218E-1,-4.639429405E-2,-3.076863348E-2,1.852108591E-1
4.505769583E-1,1.060638690E-1,-6.450312093E-2,-6.137237549E-2,1.384801985E-1
4.605669583E-1,-1.070010315E-2,-8.992579132E-3,-1.010305309E-1,1.019927785E-1
4.705579583E-1,-9.936049305E-2,1.725469485E-2,-8.395139873E-2,1.312176414E-1
4.805479583E-1,-1.405388789E-1,2.417545930E-2,-1.810239494E-2,1.437474383E-1
4.905379583E-1,-1.259969540E-1,4.281842932E-2,6.125777006E-2,1.464962959E-1
5.005279583E-1,-1.158972869E-1,8.808099478E-3,1.002651304E-1,1.535019873E-1
5.105179583E-1,-1.236829915E-1,1.498012796E-2,1.532660472E-1,1.975154877E-1
5.205079583E-1,-1.578812546E-1,4.579217702E-2,1.926452905E-1,2.532501174E-1
5.304979583E-1,-1.203160095E-1,2.199766383E-2,1.409716916E-1,1.866356268E-1
5.404879583E-1,-4.214398040E-2,-3.431730866E-3,7.128282130E-2,8.288022969E-2
5.504779583E-1,2.475408697E-2,9.618815929E-3,2.532195210E-2,3.669451866E-2
5.604689583E-1,3.039774642E-2,-3.218424439E-2,-1.413330495E-2,4.647148463E-2
5.704589583E-1,-7.900931379E-3,-3.077798903E-2,-1.808777690E-2,3.656332860E-2
5.804489583E-1,-3.654446742E-2,-2.068671808E-2,-1.585004747E-2,4.488499091E-2
5.904389583E-1,-3.207915897E-2,-2.333141372E-2,-2.427530050E-2,4.650502683E-2
6.004289583E-1,-4.700677162E-3,-4.333956242E-2,3.400857568E-2,5.529011897E-2
6.104189583E-1,-2.585676220E-2,-5.725198880E-2,5.010245204E-2,8.035308378E-2
6.204089583E-1,-3.483229305E-2,-6.638928652E-3,9.070142448E-2,9.738640775E-2
6.303989583E-1,-6.417292683E-2,5.362335294E-3,1.052791178E-1,1.234123650E-1
6.403889583E-1,-7.375818523E-2,-1.566045150E-2,1.328838229E-1,1.527862233E-1
6.503788333E-1,-3.490466148E-2,-5.701970816E-2,6.037717938E-2,9.008321876E-2
6.603698333E-1,4.441830061E-2,-8.628765374E-2,-3.919330180E-2,1.046645094E-1
6.703598333E-1,2.673031795E-2,-9.125574052E-2,-8.506120026E-2,1.275834153E-1
6.803498333E-1,1.363780824E-2,-8.468259305E-2,-8.325791895E-2,1.195366573E-1
6.903398333E-1,5.077408698E-2,-8.538718253E-2,-1.158567309E-1,1.526163849E-1
7.003298333E-1,3.759604348E-2,-8.013024330E-2,-1.422113013E-1,1.675063360E-1
7.103198333E-1,-2.949445210E-3,-4.556472033E-2,-8.029338062E-2,9.236812187E-2
7.203098333E-1,-6.886712638E-2,-3.787226960E-2,4.576323330E-2,9.094648659E-2
7.302998333E-1,-4.505957572E-2,-9.345692486E-2,6.293592095E-2,1.213486395E-1
7.402898333E-1,-4.288587330E-2,-9.790007785E-2,2.960445285E-3,1.069223438E-1
7.502808333E-1,-4.649998248E-2,-1.051906787E-1,-1.676630616E-2,1.162257987E-1
7.602708333E-1,-4.230491588E-2,-1.627704039E-1,-4.309047103E-2,1.736107687E-1
7.702608333E-1,-7.417492725E-2,-1.315472956E-1,-3.120191216E-2,1.542082039E-1
7.802508333E-1,-8.985472024E-2,-9.132824600E-2,1.469171405E-2,1.289595507E-1
7.902408333E-1,-6.939421632E-2,-8.744891077E-2,3.964996934E-2,1.184693603E-1
8.002308333E-1,-1.560086472E-2,-1.020963322E-1,1.475837231E-2,1.043305208E-1
8.102208333E-1,3.346303959E-2,-9.122460410E-2,-2.720884860E-2,1.009060199E-1
8.202108333E-1,3.829072924E-2,-1.131978558E-1,-8.272055984E-3,1.197846460E-1
8.302008333E-1,4.499432445E-3,-9.880025670E-2,4.057967663E-4,9.890348976E-2
8.401918333E-1,1.144852848E-2,-1.182288001E-1,1.797784925E-2,1.201345956E-1
8.501818333E-1,6.644540152E-2,-1.686046095E-1,-3.499558568E-3,1.812588002E-1
8.601718333E-1,6.534499208E-2,-1.609579132E-1,-1.882511079E-2,1.747335189E-1
8.701618333E-1,5.781123843E-2,-1.829387663E-1,1.020982325E-2,1.921274889E-1
8.801518333E-1,3.274355798E-2,-1.779812045E-1,8.525532782E-2,2.000447967E-1
8.901418333E-1,-4.465088275E-2,-1.742163286E-1,1.526824951E-1,2.359173050E-1
9.001318333E-1,-7.382255028E-2,-1.798183997E-1,2.035140949E-1,2.814292320E-1
9.101218333E-1,1.020192951E-3,-1.641757822E-1,2.168615341E-1,2.719993626E-1
9.201118333E-1,3.868417377E-2,-2.283134522E-1,1.321640307E-1,2.666286345E-1
9.301028333E-1,1.042027642E-1,-1.607563305E-1,7.791005552E-2,2.068110021E-1
9.400928333E-1,1.557557551E-1,-1.656285229E-1,-2.100319862E-3,2.273699061E-1
9.500828333E-1,5.343218554E-2,-2.299630979E-1,-3.515579939E-2,2.386921764E-1
9.600728333E-1,-1.900292097E-2,-2.020223241E-1,7.055250406E-3,2.030367134E-1
9.700628333E-1,-4.386718227E-3,-1.870645617E-1,1.082535964E-1,2.161740842E-1
9.800528333E-1,7.026183349E-2,-1.595665683E-1,2.312339902E-1,2.895986415E-1
9.900428333E-1,2.313046867E-1,-8.786099330E-2,2.406252033E-1,3.451404072E-1
1.000032833E0,4.127667204E-1,-1.213114522E-1,1.886867255E-1,4.697824117E-1
1.010022833E0,5.025511188E-1,-2.461329880E-1,2.092683399E-1,5.974381247E-1
1.020013833E0,4.904592595E-1,-3.192568052E-1,-5.847215652E-6,5.852138011E-1
1.030003833E0,4.770029891E-1,-2.187017991E-1,-4.124041200E-2,5.263678372E-1
1.039993833E0,3.014878477E-1,-2.512459396E-1,-7.523378491E-2,3.995992578E-1
1.049983833E0,-1.840347173E-2,-3.032645242E-1,-1.162712985E-1,3.253107349E-1
1.059973833E0,-1.856948514E-1,-3.183235896E-1,-1.281890935E-1,3.901857624E-1
1.069963833E0,-2.996969187E-1,-3.562421983E-1,-1.774618256E-1,4.982162648E-1
1.079953833E0,-3.063105216E-1,-2.783267342E-1,-2.405386645E-1,4.786969351E-1
1.089943833E0,-2.250496095E-1,-1.055149068E-1,-2.902803433E-1,3.821562507E-1
1.099933833E0,5.157621990E-2,1.528399314E-1,-2.938980156E-1,3.352554171E-1
1.109924833E0,2.860987436E-1,2.684794383E-1,-2.861639035E-1,4.856165972E-1
1.119914833E0,3.361123179E-1,2.162838292E-1,-1.629706711E-1,4.316359863E-1
1.129904833E0,-1.822960111E-1,7.141964614E-2,-5.368854940E-2,2.030149302E-1
1.139894833E0,-5.518232296E-1,3.844044355E-1,-6.644992214E-1,9.454284013E-1
1.149884833E0,1.622980220E-1,9.298939611E-1,-8.088301384E-1,1.243080697E0
1.159874833E0,1.154163479E0,1.208834507E0,-1.131722742E-1,1.675166309E0
1.169864833E0,1.302970293E0,5.777547540E-1,-3.341210121E-1,1.463956622E0
1.179854833E0,1.150728313E0,2.616074981E-1,2.377015954E-1,1.203792416E0
1.189844833E0,9.298796354E-1,6.650930062E-1,9.473395675E-1,1.484748160E0
1.199835833E0,7.902527303E-1,3.469671987E-1,6.602570665E-1,1.086657724E0
1.209825833E0,5.526492585E-1,-8.864685908E-2,5.332526189E-1,7.730703875E-1
1.219815833E0,4.105167118E-1,3.657525484E-1,2.178222317E-1,5.913927815E-1
1.229805833E0,3.167411868E-1,7.699539750E-1,7.012273371E-2,8.355066133E-1
1.239795833E0,-1.250400207E-1,5.519722605E-1,-3.624437553E-1,6.720668560E-1
1.249785833E0,-2.663713343E-1,3.634572970E-1,-3.806198251E-1,5.898528170E-1
1.259775833E0,-1.859835760E-1,4.445244835E-1,-3.985280925E-1,6.253131595E-1
1.269765833E0,-2.476789188E-1,4.063446504E-1,-6.376920766E-1,7.956833580E-1
1.279755833E0,-3.180182918E-1,6.231825033E-1,-7.170522416E-1,1.001826324E0
1.289746833E0,-6.692525692E-2,5.827350468E-1,-8.776799333E-1,1.055642548E0
1.299736833E0,2.318980146E-1,7.087050489E-1,-1.346859933E0,1.539503561E0
1.309726833E0,1.862843604E-1,1.259085770E0,-1.458487957E0,1.935764955E0
1.319716833E0,1.607456228E-1,1.534737257E0,-1.162770288E0,1.932172960E0
1.329706833E0,2.366230765E-1,1.361616843E0,-1.249967476E0,1.863440259E0
1.339696833E0,2.897002264E-1,1.336150757E0,-1.005881306E0,1.697357437E0
1.349686833E0,3.121368700E-1,1.310620206E0,-9.726901710E-1,1.661710239E0
1.359676833E0,2.781144802E-1,1.434242916E0,-1.012361775E0,1.777435447E0
1.369666833E0,9.634398758E-2,1.507228593E0,-9.660711229E-1,1.792850693E0
1.379657833E0,-7.501824193E-2,1.592024329E0,-1.742480789E0,2.361442039E0
1.389647833E0,-5.793721669E-1,2.008633767E0,-2.662157180E0,3.384872607E0
1.399637833E0,-5.025586105E-1,2.010978208E0,-2.209402009E0,3.029530615E0
1.409627833E0,-5.101063427E-1,1.569488283E0,-1.616751035E0,2.310278308E0
1.419617833E0,-7.217634894E-1,1.655310791E0,-9.219223058E-1,2.027544596E0
1.429607833E0,-5.234469844E-1,1.763078045E0,-4.550654054E-1,1.894604302E0
1.439597833E0,1.075447677E-1,2.008339506E0,-5.217470527E-2,2.011893548E0
1.449587833E0,7.370902111E-1,1.858502119E0,2.221766531E-1,2.011639772E0
1.459578833E0,7.288862751E-1,2.057512104E0,3.221950310E-1,2.206454373E0
1.469568833E0,3.910810786E-1,1.953836878E0,2.672592705E-1,2.010435394E0
1.479558833E0,3.154847664E-1,1.603676076E0,1.553078949E-1,1.641775909E0
1.489548833E0,5.536135009E-1,1.372711642E0,1.475100482E-1,1.487475840E0
1.499538833E0,6.420234016E-1,1.191582882E0,3.097363687E-1,1.388524551E0
1.509528833E0,4.382387267E-1,1.022470734E0,2.452181911E-1,1.139136315E0
1.519518833E0,3.960974780E-1,1.141176082E0,4.111189020E-1,1.276007372E0
1.529508833E0,6.176180005E-1,1.277383316E0,1.196239166E0,1.855841661E0
1.539498833E0,9.655833920E-1,1.444421018E0,2.197892935E0,2.801684621E0
1.549489833E0,1.212483973E0,1.558585272E0,3.162706906E0,3.728541325E0
1.559479833E0,1.008345396E0,1.331237342E0,3.313355740E0,3.710428487E0
1.569469833E0,4.829219793E-1,1.458378468E0,2.768277127E0,3.165981625E0
1.579459833E0,1.515090320E-1,1.197438722E0,2.075034748E0,2.400538207E0
1.589449833E0,4.121045233E-1,6.789754656E-1,1.173154358E0,1.416731792E0
1.599439833E0,4.060934394E-1,9.690625584E-1,9.545521080E-2,1.055038303E0
1.609429833E0,2.710349639E-1,1.304180959E0,-3.990601891E-1,1.390538371E0
1.619419833E0,2.464075148E-1,1.268085074E0,-3.451938844E-1,1.337129476E0
1.629409833E0,6.488314609E-1,1.635279546E0,1.983369702E-1,1.770440344E0
1.639400833E0,1.037173558E0,1.956458038E0,6.069281209E-1,2.296044161E0
1.649394542E0,1.264344902E0,2.118777329E0,9.813300169E-1,2.655333125E0
1.659384542E0,1.650972303E0,1.855566233E0,1.006985260E0,2.680084869E0
1.669374542E0,1.937031834E0,1.598912642E0,6.256602609E-1,2.588448323E0
1.679364542E0,2.026489994E0,1.211521741E0,1.000119460E-1,2.363143883E0
1.689354542E0,2.136481968E0,8.340032789E-1,-1.560651094E-1,2.298798161E0
1.699344542E0,1.938125409E0,5.876371332E-1,-1.817893499E-1,2.033394912E0
1.709334542E0,1.790573261E0,7.946791457E-1,-2.644163543E-1,1.976760875E0
1.719324542E0,1.955610338E0,9.122815628E-1,9.082772434E-2,2.159842383E0
1.729315542E0,2.136387974E0,6.312006439E-1,2.247418267E-1,2.238990111E0
1.739305542E0,1.857375653E0,4.481491725E-1,2.233466810E-1,1.923685457E0
1.749295542E0,1.665733891E0,-1.050342657E-1,4.027819419E-1,1.716955121E0
1.759285542E0,1.519442841E0,-7.635912542E-1,1.967909664E-1,1.711871735E0
1.769275542E0,1.413985384E0,-8.972524644E-1,-1.372838527E-1,1.680256976E0
1.779265542E0,1.724882571E0,-7.945310649E-1,-3.608316779E-2,1.899421357E0
1.789255542E0,1.966039286E0,-7.938159505E-1,2.558531070E-1,2.135629895E0
1.799245542E0,1.923896941E0,-9.842185414E-1,4.342656898E-1,2.204235075E0
1.809235542E0,1.356663082E0,-1.187159317E0,9.722633243E-2,1.805362823E0
1.819226542E0,8.100970839E-1,-1.070332094E0,1.879014444E-1,1.355424299E0
1.829216542E0,5.875229663E-1,-1.224269548E0,9.638012338E-1,1.665212293E0
1.839206542E0,3.245956054E-1,-1.419019982E0,1.062085912E0,1.801945200E0
1.849196542E0,4.275162488E-2,-1.301206627E0,8.205982447E-1,1.538943750E0
1.859186542E0,-5.608897761E-2,-1.666507332E0,6.038530701E-1,1.773423579E0
1.869176542E0,-3.545000204E-1,-1.920061898E0,1.078846371E-1,1.955491512E0
1.879166542E0,-7.112903953E-1,-2.172295286E0,-2.578224492E-1,2.300276777E0
1.889156542E0,-9.896199068E-1,-2.710053185E0,-7.936156833E-1,2.992250270E0
1.899146542E0,-1.708996124E0,-3.231836490E0,-1.390809360E0,3.911494028E0
1.909137542E0,-1.862729364E0,-3.214327880E0,-2.277813263E0,4.357762920E0
1.919127542E0,-1.604675073E0,-2.727909704E0,-1.908766832E0,3.695925359E0
1.929117542E0,-1.624681906E0,-2.871288695E0,-1.695090276E0,3.709072810E0
1.939107542E0,-1.317396398E0,-2.683379064E0,-1.715885314E0,3.446783846E0
1.949097542E0,-1.014072670E0,-2.481560954E0,-1.796172262E0,3.226875105E0
1.959087542E0,-1.312030115E0,-2.407069181E0,-1.717288646E0,3.234885679E0
1.969077542E0,-1.981190445E0,-2.535442462E0,-1.619171197E0,3.602124293E0
1.979067542E0,-2.017297586E0,-2.696631194E0,-1.724801148E0,3.783681851E0
1.989057542E0,-1.723733739E0,-2.812804844E0,-1.816456838E0,3.765985201E0
1.999048542E0,-1.283077919E0,-1.732689042E0,-2.032706169E0,2.963173068E0
2.009038542E0,-4.745103210E-1,-1.528653960E0,-1.371123539E0,2.107586946E0
2.019028542E0,-5.302348709E-1,-1.906043783E0,-9.573330438E-1,2.197871352E0
2.029018542E0,-1.653664507E0,-1.633912613E0,5.288274461E-1,2.384100501E0
2.039008542E0,-2.314477059E0,-1.377296444E0,1.418564923E0,3.044022995E0
2.048998542E0,-2.564164277E0,-4.759604305E-1,1.938094127E0,3.249259241E0
2.058988542E0,-3.149892148E0,2.867924792E-1,2.111127856E0,3.802753121E0
2.068978542E0,-2.787081188E0,1.088788392E0,2.589268128E0,3.956967418E0
2.078968542E0,-2.263908584E0,1.406737760E0,2.651877775E0,3.759873526E0
2.088959542E0,-1.098395952E0,2.177235891E0,4.894773805E0,5.468604977E0
2.098949542E0,-3.309278476E-1,3.462124693E0,6.850310760E0,7.682615319E0
2.108939542E0,-1.415203943E0,3.636526671E0,5.975757333E0,7.137002461E0
2.118929542E0,-2.162127271E0,2.962480116E0,4.441448238E0,5.759995245E0
2.128919542E0,-1.297393658E0,2.161006359E0,4.273890134E0,4.961785532E0
2.138909542E0,-3.669408488E-1,2.270559792E0,3.997015702E0,4.611531403E0
2.148899542E0,5.180340707E-2,3.568261013E0,2.772901690E0,4.519309022E0
2.158889542E0,-4.060248077E-2,4.435218322E0,1.721818630E0,4.757884984E0
2.168879542E0,-2.555408657E-2,4.521782257E0,1.322256165E0,4.711213130E0
2.178870542E0,-3.856601250E-1,4.337742898E0,1.344317125E0,4.557623911E0
2.188860542E0,-5.214868516E-1,4.064646937E0,8.770957234E-1,4.190775605E0
2.198850542E0,2.997276896E-1,2.988287387E0,6.220081631E-1,3.067016849E0
2.208840542E0,6.830723172E-1,2.139950536E0,1.208533521E0,2.550789948E0
2.218830542E0,1.608621651E-1,2.066168030E0,1.295050094E0,2.443784301E0
2.228820542E0,-7.495288467E-1,2.972409273E0,8.856204522E-1,3.190820265E0
2.238810542E0,-8.682173842E-1,3.612877607E0,8.111526525E-1,3.803242650E0
2.248800542E0,-2.939728600E-1,3.376182902E0,6.695740199E-1,3.454469627E0
2.258790542E0,6.854655826E-1,2.298573217E0,7.015290534E-1,2.499088817E0
2.268780542E0,1.370873863E0,1.589049266E0,6.495239174E-1,2.196873696E0
2.278771542E0,1.909685429E0,1.836591141E0,2.224386450E-1,2.658842682E0
2.288761542E0,2.264481611E0,1.993535379E0,-1.282352865E-1,3.019686170E0
2.298751542E0,2.673019552E0,1.459620855E0,2.045940757E-2,3.045643636E0
2.308741542E0,3.542420998E0,1.684910274E-1,4.747693527E-1,3.578063958E0
2.318731542E0,3.636495681E0,1.475135565E-2,9.093474300E-1,3.748497191E0
2.328721542E0,2.534486734E0,5.613274401E-1,2.097029049E0,3.337100888E0
2.338711542E0,1.896587082E0,1.802737516E0,2.713325579E0,3.769488136E0
2.348701542E0,2.154170964E0,4.197265881E0,2.434926778E0,5.309082956E0
2.358691542E0,2.436637673E0,3.962072741E0,6.336428797E-1,4.694329223E0
2.368682542E0,2.361055979E0,2.778637809E-1,-2.041225562E0,3.133431891E0
2.378672542E0,1.887166632E0,-2.177836985E0,-1.440397257E0,3.221663559E0
2.388662542E0,5.791737270E-1,-2.310539544E0,4.706458597E-1,2.428073870E0
2.398652542E0,-3.428649384E-1,-2.016218190E0,5.565941191E-1,2.119549285E0
2.408642542E0,-3.231966591E-1,-1.659642116E0,2.687146425E-1,1.712038432E0
2.418632542E0,4.667598367E-2,-1.527271678E0,1.336786934E0,2.030206082E0
2.428622542E0,-1.484783471E-1,-1.827206360E0,2.913344793E0,3.442136950E0
2.438612542E0,-6.055195266E-1,-2.017239114E0,2.977142594E0,3.646818554E0
2.448602542E0,-6.515318513E-1,-8.534712911E-1,1.948516788E0,2.224775196E0
2.458593542E0,-7.647169894E-1,2.386780804E-1,1.837837182E0,2.004845333E0
2.468583542E0,-1.234804476E0,2.890366405E-1,1.920984589E0,2.301839713E0
2.478573542E0,-1.906001683E0,1.286469305E-1,1.128227277E0,2.218623275E0
2.488563542E0,-2.448190017E0,4.166404277E-1,-4.794342979E-1,2.529245115E0
2.498553542E0,-3.498894909E0,7.561052102E-1,-2.021094768E0,4.110813148E0
2.508543542E0,-5.475290637E0,1.205506418E0,-1.463908911E0,5.794400968E0
2.518533542E0,-7.284723215E0,2.142775326E0,4.485749960E-1,7.606569394E0
2.528523542E0,-9.040497649E0,3.347872438E0,1.062534978E0,9.698857056E0
2.538513542E0,-1.046361580E1,3.297610357E0,1.284818051E0,1.104591540E1
2.548503542E0,-1.018621453E1,2.981926786E0,8.301502562E-1,1.064612621E1
2.558494542E0,-8.076393530E0,3.496339676E0,6.685203516E-1,8.826066113E0
2.568484542E0,-6.598958840E0,3.576016175E0,9.848886323E-1,7.569950797E0
2.578474542E0,-5.453787501E0,2.677336552E0,1.412116613E0,6.237467631E0
2.588464542E0,-4.561074377E0,1.400796989E0,1.766655518E0,5.087897738E0
2.598454542E0,-4.242259036E0,9.335857469E-1,1.752585948E0,4.684004866E0
2.608444542E0,-2.902207602E0,8.588390350E-1,1.860109227E0,3.552523017E0
2.618434542E0,-1.245793734E0,7.679048914E-1,3.300570803E0,3.610463623E0
2.628424542E0,2.061067504E-1,6.184985912E-1,2.080626440E0,2.180373106E0
2.638414542E0,1.333818303E0,4.658751529E-1,2.458311548E0,2.835384734E0
2.648401792E0,2.601312808E0,1.652837126E0,3.189522237E0,4.435284770E0
2.658391792E0,2.822756220E0,2.268250726E0,3.996099443E0,5.392747426E0
2.668381792E0,2.500349520E0,1.908194974E0,2.232798035E0,3.857245500E0
2.678371792E0,3.346291936E0,6.266016626E-1,2.303165474E0,4.110337038E0
2.688361792E0,3.848342058E0,-2.173803576E0,8.472463453E-1,4.500331649E0
2.698351792E0,4.538346249E0,-3.407273133E0,-5.379941261E-1,5.700485467E0
2.708341792E0,4.593152786E0,-2.280246874E0,-1.168027812E0,5.259359970E0
2.718331792E0,4.622681810E0,-1.362716412E0,-1.543306790E0,5.060432688E0
2.728321792E0,5.046555828E0,2.965035349E-1,-1.762948091E0,5.353842176E0
2.738312792E0,5.134079876E0,1.677334036E0,-1.590205845E0,5.630362357E0
2.748302792E0,4.499359939E0,1.659552653E0,-1.688906261E0,5.084364191E0
2.758292792E0,2.765924208E0,2.913842976E-1,-1.461930213E0,3.142050521E0
2.768282792E0,4.841517949E-1,-2.367461019E0,-1.796658751E0,3.011188686E0
2.778272792E0,-1.315948042E0,-4.903144094E0,-2.241390664E0,5.549448023E0
2.788262792E0,-2.679132231E0,-6.332917544E0,-5.693945512E-1,6.899840889E0
2.798252792E0,-4.603023764E0,-8.060602539E0,5.533580945E0,1.080655630E1
2.808242792E0,-2.436663693E0,-7.625052801E0,2.180187858E0,8.296504039E0
2.818232792E0,-1.213653051E0,-6.899389365E0,1.421449354E-1,7.006763341E0
2.828223792E0,-1.375397561E0,-6.520868690E0,-6.502220750E-1,6.695986534E0
2.838213792E0,-1.746282064E0,-4.989981093E0,-2.060508510E0,5.674073288E0
2.848203792E0,-1.932865839E0,-2.862968692E0,-3.605098179E0,4.992924290E0
2.858193792E0,-2.131863252E0,-1.138152925E0,-4.285974282E0,4.920346386E0
2.868183792E0,-2.167582138E0,-1.163356179E-1,-3.729896180E0,4.315561588E0
2.878173792E0,-1.760544593E0,6.665445775E-1,-2.498618159E0,3.128400812E0
2.888163792E0,-9.410307142E-1,1.801438850E0,-1.365884726E0,2.448746989E0
2.898153792E0,-6.757308456E-1,2.695034319E0,-6.685788238E-1,2.857764826E0
2.908143792E0,-4.177844355E-1,2.978850566E0,-1.218866721E0,3.245570922E0
2.918134792E0,-5.835228860E-2,3.000819139E0,-2.151729459E0,3.693001512E0
2.928124792E0,-2.261317098E-1,2.939807537E0,-2.924101039E0,4.152586037E0
2.938114792E0,-6.063626951E-1,2.359228724E0,-2.809599693E0,3.718532819E0
2.948104792E0,-7.040103194E-1,1.431100184E0,-2.407509476E0,2.887867750E0
2.958094792E0,8.399189070E-2,9.044613504E-1,-2.236447721E0,2.413877250E0
2.968084792E0,1.108365016E0,1.181571425E0,-1.231019574E0,2.034697332E0
2.978074792E0,1.914051253E0,2.693276646E0,1.337825400E-1,3.306845787E0
2.988064792E0,2.916393532E0,4.846544800E0,1.250658032E0,5.792969294E0
2.998054792E0,4.148813221E0,7.357723364E0,1.372279241E0,8.557563588E0
3.008044792E0,4.620280651E0,8.976257215E0,4.575460866E-1,1.010591586E1
3.018035792E0,4.389766453E0,9.279855761E0,1.204665296E0,1.033619809E1
3.028025792E0,3.467590378E0,9.116678683E0,2.026068994E0,9.962076531E0
3.038015792E0,1.980513045E0,7.039042509E0,2.789637591E0,7.826405896E0
3.048005792E0,2.456569516E-1,3.538375894E0,3.915835884E0,5.283391143E0
3.057995792E0,-1.026294155E0,1.629390961E-1,5.479207102E0,5.576875407E0
3.067985792E0,-1.512849082E0,-2.234520478E0,6.596997099E0,7.127563738E0
3.077975792E0,-1.508208732E0,-3.994233012E0,7.085100442E0,8.272075871E0
3.087965792E0,-1.255076773E0,-5.220920384E0,7.866322952E0,9.524298617E0
3.097955792E0,-9.479425617E-1,-6.393129247E0,9.545646211E0,1.152779503E1
3.107946792E0,-7.178869316E-1,-6.819167320E0,9.432145908E0,1.166112263E1
3.117936792E0,-5.897453468E-1,-6.457024112E0,6.122666287E0,8.917847410E0
3.127926792E0,-5.338123436E-1,-5.785284868E0,3.083340602E0,6.577344896E0
3.137916792E0,-8.084145476E-1,-4.814469314E0,1.719999122E0,5.176006746E0
3.147906792E0,-9.966175622E-1,-3.728522084E0,2.019627117E0,4.355917491E0
3.157896792E0,-4.887798661E-1,-2.877156376E0,2.979117199E0,4.170380540E0
3.167886792E0,5.579563741E-1,-2.239366651E0,3.503918252E0,4.195655065E0
3.177876792E0,3.224724814E-2,-1.389018357E0,3.586533270E0,3.846249183E0
3.187866792E0,-2.300196697E0,-8.774799585E-2,2.399502007E0,3.325088636E0
3.197857792E0,-3.761182000E0,1.690910686E0,-2.571593750E-1,4.131803472E0
3.207847792E0,-3.685512890E0,3.543778721E0,-5.161248379E0,7.264974722E0
3.217837792E0,-9.928858691E-1,4.545826008E0,-8.458899082E0,9.654187181E0
3.227827792E0,1.793383141E0,5.230715640E0,-8.083636476E0,9.793966912E0
3.237817792E0,2.703834086E0,5.178659633E0,-6.749393080E0,8.926563802E0
3.247807792E0,4.198466607E0,4.214577733E0,-1.344154426E0,6.098896493E0
3.257797792E0,6.670279668E0,1.213712985E0,6.113676778E0,9.129226353E0
3.267787792E0,4.448017293E0,5.349874878E-1,-3.119850909E0,5.459353363E0
3.277777792E0,3.038356510E0,1.669756045E0,-8.465609931E0,9.148018749E0
3.287768792E0,2.582767194E0,1.040754685E0,-9.071979643E0,9.489713976E0
3.297758792E0,2.144544693E0,-4.491234648E-1,-7.565705316E0,7.876590681E0
3.307748792E0,1.711532939E0,-1.320005425E0,-6.323823954E0,6.683001476E0
3.317738792E0,9.544658616E-1,-1.903047085E0,-5.646725737E0,6.034741489E0
3.327728792E0,-1.952421851E-2,-2.521876629E0,-5.271913952E0,5.844084158E0
3.337718792E0,-1.254007317E0,-2.958064299E0,-4.972970374E0,5.920566956E0
3.347708792E0,-2.974323359E0,-3.432274657E0,-4.736418926E0,6.562070786E0
3.357698792E0,-4.985081127E0,-4.574746921E0,-3.318947432E0,7.536229514E0
3.367688792E0,-4.372684105E0,-4.854301132E0,-2.553505388E0,7.014627255E0
3.377679792E0,-2.446956986E0,-4.111067398E0,-1.358550271E0,4.973342184E0
3.387669792E0,-7.574201028E-1,-3.296049736E0,-2.349995971E-1,3.390111190E0
3.397659792E0,-9.789408445E-2,-1.897065384E0,1.747633356E-1,1.907611739E0
3.407649792E0,3.106268996E-1,-3.821816164E-1,-1.193217909E-1,5.067440661E-1
3.417639792E0,4.544124176E-1,5.594458061E-1,-6.252896205E-1,9.541788956E-1
3.427629792E0,3.721688443E-1,9.658693939E-1,-1.029670703E0,1.460012017E0
3.437619792E0,2.524794097E-1,1.327415017E0,-1.363595248E0,1.919679265E0
3.447609792E0,1.976664408E-1,1.925598627E0,-1.632299951E0,2.532075280E0
3.457599792E0,2.345893418E-1,2.637598289E0,-1.820019547E0,3.213164802E0
3.467589792E0,5.896096914E-1,2.924553321E0,-1.886754988E0,3.529942790E0
3.477580792E0,1.195739009E0,2.877980248E0,-1.281851174E0,3.369822624E0
3.487570792E0,1.876346945E0,2.591111171E0,-1.688512158E-1,3.203598865E0
3.497560792E0,2.396071299E0,2.055041363E0,1.080142114E0,3.336324274E0
3.507550792E0,2.326782963E0,1.630675594E0,2.381788452E0,3.707551494E0
3.517540792E0,1.517161696E0,1.545222046E0,3.474692699E0,4.094261855E0
3.527530792E0,1.757393090E-1,1.705445110E0,4.037909374E0,4.386814270E0
3.537520792E0,-1.278305861E0,2.231223233E0,3.906495541E0,4.676871861E0
3.547510792E0,-2.158604762E0,2.644676929E0,2.883066741E0,4.468329040E0
3.557500792E0,-1.883346500E0,2.503420478E0,1.195915815E0,3.353255547E0
3.567491792E0,-1.399354773E0,2.083191614E0,-4.626026125E-1,2.551838995E0
3.577481792E0,-1.310036069E0,1.858442770E0,-1.292246500E0,2.615321213E0
3.587471792E0,-1.269370292E0,1.795879317E0,-1.174625225E0,2.493236427E0
3.597461792E0,-1.383168364E0,1.117370752E0,-2.385500264E-1,1.794039642E0
3.607451792E0,-1.480720825E0,1.134003156E-1,1.057236378E0,1.822948862E0
3.617441792E0,-1.129364853E0,-6.711071599E-1,2.660193685E0,2.966897408E0
3.627431792E0,-4.598317632E-1,-1.373601004E0,4.286608998E0,4.524736641E0
3.637421792E0,1.535841358E-1,-1.949423692E0,5.414513508E0,5.756804439E0
3.647411667E0,-2.002115875E-2,-1.841081218E0,5.227682104E0,5.542439993E0
3.657402667E0,-8.233535989E-1,-1.171087368E0,3.251805901E0,3.552970362E0
3.667392667E0,-1.466340914E0,-4.362169057E-1,5.814238818E-1,1.636610704E0
3.677382667E0,-2.067886380E0,1.624952924E-1,-1.164471974E0,2.378771486E0
3.687372667E0,-2.939441209E0,8.130629379E-1,-1.562705805E0,3.426869621E0
3.697362667E0,-4.077039526E0,1.462703215E0,-1.098930387E0,4.468713460E0
3.707352667E0,-5.405793555E0,1.975430353E0,1.501778403E-1,5.757385034E0
3.717342667E0,-6.326620093E0,2.253733259E0,1.720368666E0,6.932900097E0
3.727332667E0,-6.513554408E0,2.365260127E0,2.542416143E0,7.381376995E0
3.737322667E0,-6.779455370E0,2.215912884E0,3.601599498E0,7.990169208E0
3.747313667E0,-7.918052684E0,4.389089638E-1,6.134437902E0,1.002594274E1
3.757303667E0,-8.602842913E0,-3.061713213E-1,6.668370552E0,1.088897667E1
3.767293667E0,-9.360808707E0,-1.109015080E0,4.854361066E0,1.060280508E1
3.777283667E0,-1.084769484E1,-2.731723843E0,2.779825963E0,1.152658800E1
3.787273667E0,-1.144942127E1,-3.702106118E0,9.961807752E-1,1.207423759E1
3.797263667E0,-1.020054372E1,-4.236700673E0,8.669676881E-1,1.107936631E1
3.807253667E0,-7.103178864E0,-3.914146038E0,2.214757913E0,8.407189887E0
3.817243667E0,-3.868579564E0,-3.513588377E0,4.142317257E0,6.668583312E0
3.827233667E0,-1.275226571E0,-3.298423705E0,3.633169785E0,5.070081304E0
3.837223667E0,3.524435547E-1,-3.079581134E0,9.420998776E-1,3.239689584E0
3.847214667E0,1.498733465E0,-3.166395915E0,-1.104783450E0,3.673256261E0
3.857204667E0,2.300573550E0,-3.741986468E0,-2.854956252E0,5.238881234E0
3.867194667E0,2.430088207E0,-4.408086657E0,-4.887255455E0,7.015826576E0
3.877184667E0,1.872734242E0,-5.426382771E0,-6.626938351E0,8.767501094E0
3.887174667E0,1.245131829E0,-6.640271173E0,-6.070783358E0,9.082839044E0
3.897164667E0,4.720515668E-1,-8.731272912E0,-2.080404977E0,8.988105708E0
3.907154667E0,-9.781415302E-1,-1.087800797E1,2.808421186E0,1.127719149E1
3.917144667E0,-2.661052641E0,-1.147373868E1,5.113419324E0,1.284036361E1
3.927134667E0,-3.292516263E0,-1.000746281E1,4.660215672E0,1.151987784E1
3.937125667E0,-2.554470178E0,-7.628852322E0,2.605001231E0,8.456402134E0
3.947115667E0,-1.179957009E0,-4.935569243E0,-7.256374159E-1,5.126274667E0
3.957105667E0,1.369400364E-1,-1.978972011E0,-3.919966357E0,4.393315267E0
3.967095667E0,8.746288562E-1,-8.310747010E-1,-5.033402517E0,5.175983162E0
3.977085667E0,1.819825419E0,-2.363526428E-1,-4.865202096E0,5.199790242E0
3.987075667E0,2.865773601E0,3.577852786E-2,-4.409089747E0,5.258708095E0
3.997065667E0,3.724726657E0,2.718230224E-1,-3.808474865E0,5.334037609E0
4.007055667E0,4.310484349E0,9.744829273E-1,-3.525178436E0,5.653032398E0
4.017045667E0,4.466552382E0,1.747018813E0,-3.874750130E0,6.165699756E0
4.027036667E0,4.454412977E0,2.148245981E0,-4.150436993E0,6.456228233E0
4.037026667E0,4.482912891E0,2.569389349E0,-4.107024633E0,6.600448541E0
4.047016667E0,4.410250127E0,3.141813635E0,-3.910902588E0,6.679555236E0
4.057006667E0,4.450707597E0,3.674533573E0,-3.961208523E0,7.000154859E0
4.066996667E0,4.787735260E0,4.190377277E0,-4.232531024E0,7.641726866E0
4.076986667E0,5.481842442E0,4.418354952E0,-4.674257761E0,8.451103044E0
4.086976667E0,6.368628244E0,4.269076121E0,-5.161917300E0,9.242825697E0
4.096966667E0,7.071843635E0,4.128331302E0,-5.496625957E0,9.862402783E0
4.106956667E0,7.507756485E0,4.295717790E0,-5.447590038E0,1.022232048E1
4.116947667E0,7.744775126E0,4.671052902E0,-5.017719115E0,1.034300643E1
4.126937667E0,7.709838597E0,5.104124590E0,-4.554048362E0,1.030694210E1
4.136927667E0,7.216742901E0,5.655305357E0,-4.670452685E0,1.028965427E1
4.146917667E0,6.322241113E0,6.078480633E0,-4.574513617E0,9.891654782E0
4.156907667E0,5.301041856E0,6.296524474E0,-3.690118449E0,9.020212824E0
4.166897667E0,4.345257740E0,6.293193900E0,-2.296316192E0,7.984899645E0
4.176887667E0,3.474617854E0,5.911664248E0,2.015003139E-1,6.860127243E0
4.186877667E0,1.465975901E0,5.243323991E0,4.129797199E0,6.833502522E0
4.196867667E0,-3.147766101E0,3.082139291E0,9.225837429E0,1.022370238E1
4.206858667E0,-9.678965067E0,-1.776024511E0,1.772428825E1,2.027281484E1
4.216848667E0,-1.489369325E1,-8.639279838E0,2.199953377E1,2.793633370E1
4.226838667E0,-1.567276106E1,-1.397538218E1,1.430042305E1,2.540568531E1
4.236828667E0,-1.363302303E1,-1.564618546E1,3.673777235E0,2.107508187E1
4.246818667E0,-9.144743564E0,-1.459794576E1,3.342843248E0,1.754710678E1
4.256808667E0,-3.407184840E0,-8.292855114E0,4.268570045E0,9.929805875E0
4.266798667E0,1.076162499E0,-6.486778253E-1,1.963795563E0,2.331394788E0
4.276788667E0,3.150789696E0,4.081106849E0,1.564382787E0,5.387968293E0
4.286778667E0,3.604807280E0,7.656370488E0,1.305103796E0,8.562589590E0
4.296769667E0,3.351432808E0,9.044694781E0,1.900388356E0,9.831077329E0
4.306759667E0,3.431530307E0,7.906941805E0,2.372360986E0,8.939979060E0
4.316749667E0,3.664917242E0,4.600997411E0,1.332324924E0,6.031242432E0
4.326739667E0,2.853351776E0,1.639093831E0,9.085204875E-1,3.413744926E0
4.336729667E0,2.585199636E0,-1.132287583E0,-5.059496301E-1,2.867283968E0
4.346719667E0,1.453350009E0,-4.435208382E0,-4.132414412E-1,4.685516848E0
4.356709667E0,-2.651592430E0,-9.283697966E0,-1.673807873E0,9.798960309E0
4.366699667E0,-7.475753505E0,-1.007421696E1,-8.293511757E0,1.503858621E1
4.376690667E0,-7.001534375E0,-7.651256513E0,-8.874605709E0,1.364997569E1
4.386680667E0,-2.196287289E0,-6.354817121E0,-5.105215681E0,8.442191993E0
4.396670667E0,2.409407775E0,-3.116339071E0,-3.143046813E0,5.039400589E0
4.406660667E0,4.752850771E0,6.053546351E-1,-2.920599141E0,5.611233735E0
4.416650667E0,5.333549452E0,2.816244761E0,-2.885808501E0,6.686245210E0
4.426640667E0,4.202491538E0,2.680440838E0,-4.181332219E0,6.506092325E0
4.436630667E0,2.139537138E0,1.246356236E0,-6.874552147E0,7.306879652E0
4.446620667E0,1.604964802E0,-9.180035019E-1,-7.168983428E0,7.403577908E0
4.456610667E0,2.431454701E0,-3.316697423E0,-4.990628380E0,6.466747667E0
4.466601667E0,3.740934554E0,-5.501131822E0,-1.722294447E0,6.871924099E0
4.476591667E0,3.926024657E0,-5.965734036E0,-8.059439528E-1,7.187015921E0
4.486581667E0,3.421267274E0,-4.535955323E0,-1.601949978E0,5.903067354E0
4.496571667E0,2.872663375E0,-2.669435794E0,-1.206678346E0,4.102944669E0
4.506561667E0,2.918049463E0,-8.224529815E-1,-1.165193374E0,3.247940451E0
4.516551667E0,2.665986521E0,4.873934913E-1,-8.052112967E-1,2.827260472E0
4.526541667E0,2.227956394E0,8.361875063E-1,3.465526311E-1,2.404807262E0
4.536531667E0,2.226315081E0,6.875945538E-1,2.576860629E-2,2.330220833E0
4.546521667E0,2.536760132E0,6.500378877E-1,-1.515072632E0,3.025416716E0
4.556512667E0,2.502446624E0,2.675259036E-1,-2.134859365E0,3.300217224E0
4.566502667E0,3.069022232E0,2.754307544E-1,-1.928642687E0,3.635164670E0
4.576492667E0,3.239969090E0,1.130114758E-1,-1.017856404E0,3.397970417E0
4.586482667E0,2.477385165E0,-4.597829390E-1,9.454947710E-2,2.521463307E0
4.596472667E0,7.015977582E-1,-1.081508024E0,-1.604850197E-1,1.299097557E0
4.606462667E0,-1.919328073E-1,-3.771705526E-1,-7.763266361E-1,8.841826023E-1
4.616452667E0,-6.256240082E-1,7.385360813E-1,-1.190244015E0,1.534119213E0
4.626442667E0,-8.306384987E-1,2.124092887E0,-7.197209108E-1,2.391595513E0
4.636432667E0,-1.455500615E-1,3.179477890E0,2.512899399E-2,3.182906838E0
4.646423792E0,-5.407008022E-2,3.407733893E0,7.983870844E-1,3.500427945E0
4.656413792E0,3.991537446E-1,3.680603567E0,1.095688545E0,3.860919543E0
4.666403792E0,-1.474889982E-1,3.689523495E0,1.308009131E0,3.917298114E0
4.676393792E0,-9.939483082E-1,3.685270815E0,1.189888505E0,3.998123169E0
4.686383792E0,-2.225428058E0,3.312849956E0,6.929419787E-1,4.050638648E0
4.696373792E0,-3.575071850E0,3.137393140E0,1.020925315E-1,4.757604159E0
4.706363792E0,-4.088832483E0,3.426859551E0,-7.613704817E-1,5.389026115E0
4.716353792E0,-3.502328102E0,3.217412286E0,-2.745073329E-1,4.763758834E0
4.726343792E0,-3.885164899E0,1.820935221E0,7.974970651E-1,4.364208168E0
4.736333792E0,-3.570853084E0,8.628484708E-1,2.216987310E0,4.290749580E0
4.746324792E0,-2.284028561E0,3.736663163E-2,4.707320257E0,5.232307974E0
4.756314792E0,-1.434402691E0,-5.674231625E-1,6.981801192E0,7.150176781E0
4.766304792E0,-1.985305130E0,-3.344133729E-1,5.860615132E0,6.196779687E0
4.776294792E0,-3.657310891E0,6.132097846E-1,2.517607577E0,4.482220109E0
4.786284792E0,-4.560708926E0,1.071743174E0,-4.377342582E-2,4.685148391E0
4.796274792E0,-4.256031276E0,1.011093514E0,-1.209281380E0,4.538554150E0
4.806264792E0,-4.650198807E0,1.294834331E0,-1.445347509E0,5.038846526E0
4.816254792E0,-5.903165905E0,1.672127675E0,-9.741440812E-1,6.212272962E0
4.826244792E0,-7.460698678E0,1.628691634E0,-5.946720645E-2,7.636635225E0
4.836235792E0,-8.631309498E0,1.323804946E0,1.036470430E0,8.793533655E0
4.846225792E0,-9.129826732E0,1.056303016E0,2.108159809E0,9.429414086E0
4.856215792E0,-9.291703974E0,9.908750117E-1,3.352668325E0,9.927637228E0
4.866205792E0,-9.337222209E0,6.548109698E-1,4.856850518E0,1.054521185E1
4.876195792E0,-9.079002149E0,-1.766560793E-1,5.276838477E0,1.050259547E1
4.886185792E0,-7.964455018E0,-9.969549465E-1,3.965318238E0,8.952665058E0
4.896175792E0,-6.146280853E0,-1.842933031E0,2.821869782E0,7.009716081E0
4.906165792E0,-4.736002311E0,-3.560239218E0,3.172452461E0,6.720824041E0
4.916156792E0,-3.401261026E0,-5.291855296E0,4.868650199E0,7.954625309E0
4.926146792E0,-1.804690194E0,-5.392013422E0,4.652997869E0,7.347183448E0
4.936136792E0,-5.442079622E-1,-4.601319008E0,1.472355798E0,4.861700373E0
4.946126792E0,5.165342599E-1,-4.312353703E0,-1.342037734E0,4.545796672E0
4.956116792E0,1.576718365E0,-4.538691235E0,-3.491910410E0,5.939629386E0
4.966106792E0,2.375655600E0,-5.389720144E0,-5.378126285E0,7.976030661E0
4.976096792E0,2.958910683E0,-6.988832468E0,-5.414567887E0,9.322900681E0
4.986086792E0,3.230122964E0,-8.595806374E0,-3.411289001E0,9.795839639E0
4.996076792E0,2.800918039E0,-9.752011993E0,-7.112378434E-1,1.017117196E1
5.006066792E0,1.604330964E0,-1.032431992E1,1.651089393E0,1.057788050E1
5.016057792E0,-1.342585033E-1,-1.025672494E1,2.903490481E0,1.066061390E1
5.026047792E0,-1.523655176E0,-9.577763212E0,3.162908635E0,1.020093448E1
5.036037792E0,-1.964178556E0,-8.254235424E0,2.956707745E0,8.985127741E0
5.046027792E0,-1.540194025E0,-6.567460474E0,2.090881579E0,7.062260296E0
5.056017792E0,-2.411935526E-1,-5.208564048E0,9.924829960E-2,5.215090028E0
5.066007792E0,1.284620415E0,-3.297663567E0,-1.971809172E0,4.051279554E0
5.075997792E0,2.918799661E0,-1.218718202E0,-3.482143221E0,4.704252005E0
5.085987792E0,3.760329183E0,-6.173724174E-2,-4.233260171E0,5.662541720E0
5.095977792E0,3.513318236E0,1.934253091E-1,-4.399443010E0,5.633464048E0
5.105968792E0,3.253366231E0,7.273871952E-1,-3.947254143E0,5.166652614E0
5.115958792E0,3.343175955E0,1.517724345E0,-3.348491951E0,4.969176088E0
5.125948792E0,3.384935600E0,2.148009753E0,-2.844943772E0,4.915835634E0
5.135938792E0,3.519524471E0,2.595282574E0,-2.418488793E0,4.997162413E0
5.145928792E0,4.397841750E0,3.290584343E0,-2.459225467E0,6.018035168E0
5.155918792E0,4.782834123E0,3.319379541E0,-2.909727706E0,6.508478940E0
5.165908792E0,4.917650451E0,3.237111556E0,-3.538280292E0,6.868886708E0
5.175898792E0,5.349690691E0,3.373152875E0,-4.420919541E0,7.716338536E0
5.185888792E0,6.145066386E0,3.502725420E0,-5.355828513E0,8.872193940E0
5.195879792E0,7.105716555E0,3.474226091E0,-5.682972043E0,9.739487971E0
5.205869792E0,7.928331504E0,3.456271046E0,-5.241682677E0,1.011333215E1
5.215859792E0,8.526173637E0,3.595899047E0,-4.522431883E0,1.029944256E1
5.225849792E0,8.810327852E0,4.065003617E0,-4.018315939E0,1.050204715E1
5.235839792E0,8.985889918E0,4.796129522E0,-3.814240219E0,1.087646562E1
5.245829792E0,8.931666933E0,5.504261836E0,-3.865723491E0,1.118102816E1
5.255819792E0,8.829093906E0,6.135160033E0,-3.911824986E0,1.144095549E1
5.265809792E0,8.389311953E0,6.556044370E0,-3.904381188E0,1.134047906E1
5.275799792E0,7.262876848E0,6.330062934E0,-3.613574888E0,1.028965501E1
5.285790792E0,5.952681881E0,5.467954136E0,-2.424592409E0,8.438696129E0
5.295780792E0,4.445119997E0,4.780876476E0,-2.793478042E-1,6.534057458E0
5.305770792E0,1.773987926E0,3.067784377E0,3.116927885E0,4.719488700E0
5.315760792E0,-3.776393824E0,-7.264814615E-1,1.128627811E1,1.192346423E1
5.325750792E0,-1.279570760E1,-6.085451683E0,2.486488695E1,2.861862083E1
5.335740792E0,-1.770983744E1,-1.102675178E1,2.177386632E1,3.015508003E1
5.345730792E0,-1.862388822E1,-1.327414081E1,8.676392115E0,2.446082188E1
5.355720792E0,-1.867186463E1,-1.244116518E1,1.164849558E0,2.246726495E1
5.365710792E0,-1.530930866E1,-9.228575095E0,7.262595597E-1,1.789047185E1
5.375701792E0,-5.523884507E0,-1.743618073E0,5.010310693E0,7.658767347E0
5.385691792E0,1.048157260E0,4.041169197E0,6.411607618E0,7.651038777E0
5.395681792E0,3.215911306E0,6.766342404E0,4.136354559E0,8.557739427E0
5.405671792E0,4.291468619E0,6.976125299E0,4.978991836E-1,8.205542681E0
5.415661792E0,5.707464859E0,4.576285324E0,-1.575540736E0,7.483306161E0
5.425651792E0,5.671769362E0,5.314750654E-1,1.340716848E-1,5.698193456E0
5.435641792E0,3.125353138E0,-4.634751048E0,1.076595193E0,5.692785498E0
5.445631792E0,-1.410279418E0,-9.903502825E0,1.760707438E0,1.015718204E1
5.455621792E0,-7.066848359E0,-1.218508520E1,-2.965280640E0,1.439477462E1
5.465612792E0,-8.092118447E0,-9.736016350E0,-1.171137887E1,1.724612393E1
5.475602792E0,-3.012119468E0,-6.119417574E0,-7.488474122E0,1.012903647E1
5.485592792E0,3.588419874E0,-2.008529102E0,-2.499047345E0,4.812087278E0
5.495582792E0,8.792260541E0,2.675992277E0,1.419545209E0,9.299456365E0
5.505572792E0,1.039173715E1,4.986130117E0,-2.052904791E-1,1.152787225E1
5.515562792E0,8.511512913E0,4.085638441E0,-6.738305005E0,1.159926928E1
5.525552792E0,6.346468467E0,1.890122985E0,-8.578650059E0,1.083713356E1
5.535542792E0,4.950284931E0,-1.068804363E0,-8.282715458E0,9.708297431E0
5.545532792E0,3.766955248E0,-4.022435887E0,-7.759087940E0,9.517005200E0
5.555523792E0,3.031214136E0,-5.460105418E0,-6.827713026E0,9.253036014E0
5.565513792E0,2.963629094E0,-5.824935422E0,-5.232086812E0,8.371839850E0
5.575503792E0,2.589553472E0,-6.488331859E0,-1.934985747E0,7.249028027E0
5.585493792E0,1.630428257E0,-7.776629587E0,3.926647970E0,8.863003347E0
5.595483792E0,9.326367438E-1,-6.305197064E0,2.929037551E0,7.014597799E0
5.605473792E0,1.030692211E0,-3.329900436E0,-8.561709505E-1,3.589372097E0
5.615463792E0,8.837440807E-1,-1.502400547E0,-1.861379827E0,2.550087422E0
5.625453792E0,6.107247180E-1,1.375294358E-1,-1.640991837E0,1.756346559E0
5.635444792E0,9.881268203E-1,1.432592393E0,-1.453186871E0,2.267259946E0
5.645434792E0,1.975170736E0,1.599431582E0,-1.215901598E0,2.817427465E0
5.655424542E0,2.523632548E0,1.161966881E0,-1.414352589E0,3.117576224E0
5.665414542E0,2.413949892E0,6.274284589E-1,-1.936049355E0,3.157389374E0
5.675404542E0,1.862865897E0,3.684155166E-1,-2.135531795E0,2.857708066E0
5.685394542E0,1.064805745E0,7.265317476E-1,-1.509152327E0,1.984741897E0
5.695384542E0,7.394535094E-2,1.246554456E0,-5.130955855E-1,1.350049261E0
5.705374542E0,-8.263741243E-1,1.259025398E0,5.770602509E-2,1.507106211E0
5.715364542E0,-1.149914892E0,1.286244187E0,4.874975717E-1,1.792869836E0
5.725355542E0,-9.498258036E-1,1.629327811E0,1.059817046E0,2.163351646E0
5.735345542E0,-6.873621270E-1,2.086284206E0,1.746569163E0,2.806341448E0
5.745335542E0,-4.854212254E-1,2.561110277E0,2.213458807E0,3.419695821E0
5.755325542E0,-6.756133166E-1,2.865871249E0,2.633183641E0,3.950104741E0
5.765315542E0,-5.835041749E-1,3.241184726E0,2.306618986E0,4.020727136E0
5.775305542E0,-3.046241480E-1,3.500920385E0,1.867162138E0,3.979388629E0
5.785295542E0,-1.087898446E0,2.758733302E0,6.902920206E-1,3.044771836E0
5.795285542E0,-2.090834217E0,2.036951247E0,1.350987482E-1,2.922158411E0
5.805275542E0,-3.011800795E0,1.940088612E0,1.771522155E-1,3.586958427E0
5.815266542E0,-3.257118097E0,1.700508306E0,3.212898821E-2,3.674449492E0
5.825256542E0,-3.760345556E0,1.918220610E0,1.369875158E0,4.438054411E0
5.835246542E0,-3.641649709E0,2.560372358E0,3.555455611E0,5.697225975E0
5.845236542E0,-2.768849862E0,2.733366326E0,6.092650191E0,7.228983841E0
5.855226542E0,-2.477352713E0,2.141466134E0,7.143599496E0,7.858381985E0
5.865216542E0,-3.105107447E0,1.275005254E0,5.190521879E0,6.181330604E0
5.875206542E0,-4.081357110E0,4.603366703E-1,1.795202794E0,4.482425547E0
5.885196542E0,-4.043510422E0,3.809344053E-2,-7.433848849E-1,4.111453360E0
5.895186542E0,-4.074308292E0,-1.953086972E-2,-1.841503240E0,4.471185938E0
5.905177542E0,-4.919517467E0,2.469817114E-1,-1.768595185E0,5.233601151E0
5.915167542E0,-6.474427764E0,3.556808656E-1,-7.732942700E-1,6.530138420E0
5.925157542E0,-7.716186919E0,1.517247212E-1,9.286221917E-1,7.773345492E0
5.935147542E0,-8.122571331E0,-9.940091193E-2,2.941590353E0,8.639386516E0
5.945137542E0,-8.171863943E0,-2.325963914E-1,5.129605587E0,9.651233852E0
5.955127542E0,-8.058054323E0,-4.359274685E-2,6.773609909E0,1.052691460E1
5.965117542E0,-8.369640166E0,-3.631898600E-1,6.121990349E0,1.037600835E1
5.975107542E0,-8.267813244E0,-8.665439111E-1,3.974777279E0,9.214471694E0
5.985097542E0,-6.844550668E0,-9.853324360E-1,2.780610659E0,7.453224101E0
5.995088542E0,-5.562399532E0,-1.627374841E0,3.669229563E0,6.859437515E0
6.005078542E0,-4.667050483E0,-3.223146651E0,5.035530903E0,7.584629590E0
6.015068542E0,-3.144308935E0,-3.973743784E0,4.466741831E0,6.754931600E0
6.025058542E0,-1.540356285E0,-4.128635942E0,2.669022396E0,5.151894096E0
6.035048542E0,-1.893325505E-1,-4.425223677E0,5.998342788E-1,4.469703856E0
6.045038542E0,9.200365788E-1,-5.047916476E0,-2.224291359E0,5.592441336E0
6.055028542E0,1.473092548E0,-5.910435163E0,-5.046947007E0,7.910431061E0
6.065018542E0,1.378381395E0,-7.234455872E0,-5.994200036E0,9.495668544E0
6.075008542E0,9.194132656E-1,-8.527198069E0,-4.204949707E0,9.551964704E0
6.084999542E0,3.815132797E-2,-8.948335590E0,-1.232284327E0,9.032867209E0
6.094989542E0,-8.662997898E-1,-8.617701858E0,9.762581420E-1,8.715981906E0
6.104979542E0,-1.737433765E0,-8.099293565E0,1.727225404E0,8.461710225E0
6.114969542E0,-2.432159876E0,-7.658111204E0,1.377171168E0,8.152218673E0
6.124959542E0,-2.832788288E0,-7.468072017E0,4.811527580E-1,8.001768374E0
6.134949542E0,-2.613465076E0,-6.948062757E0,-5.609795308E-1,7.444492852E0
6.144939542E0,-1.537334152E0,-5.894460570E0,-1.680634936E0,6.319224280E0
6.154929542E0,1.230833048E-1,-3.984146565E0,-2.571004350E0,4.743272786E0
6.164919542E0,1.910211679E0,-2.116843509E0,-3.191816685E0,4.279909911E0
6.174910542E0,3.313218915E0,-1.119713731E0,-3.752386326E0,5.129481607E0
6.184900542E0,4.172784174E0,-6.172899717E-1,-4.259258062E0,5.994535337E0
6.194890542E0,4.775607550E0,9.943599522E-2,-4.441558751E0,6.522557713E0
6.204880542E0,4.986972701E0,6.632619506E-1,-4.177886454E0,6.539460862E0
6.214870542E0,5.391124645E0,1.171232378E0,-3.876466873E0,6.742626020E0
6.224860542E0,5.877170938E0,1.929177707E0,-3.514895522E0,7.114587507E0
6.234850542E0,6.272881258E0,2.566327747E0,-3.402848545E0,7.583828558E0
6.244840542E0,6.403717970E0,2.800426873E0,-3.770093741E0,7.941259430E0
6.254830542E0,6.359342281E0,3.037423294E0,-4.549546299E0,8.388417374E0
6.264821542E0,6.512889580E0,3.307231366E0,-5.464749277E0,9.122444554E0
6.274811542E0,6.979619011E0,3.471625834E0,-6.180646693E0,9.948249143E0
6.284801542E0,7.769949728E0,3.777888957E0,-6.508481948E0,1.081688037E1
6.294791542E0,8.601044310E0,3.933264095E0,-6.297280519E0,1.136240607E1
6.304781542E0,8.999235603E0,3.667276593E0,-5.542169920E0,1.118708212E1
6.314771542E0,8.965786021E0,3.530311414E0,-4.487526344E0,1.062950189E1
6.324761542E0,8.769420732E0,4.102129928E0,-3.887923615E0,1.043293631E1
6.334751542E0,8.800286429E0,4.946320519E0,-3.728379997E0,1.076159585E1
6.344742542E0,9.144005061E0,5.474097220E0,-3.483627244E0,1.121223562E1
6.354732542E0,8.939221535E0,5.980007674E0,-3.287681785E0,1.124628939E1
6.364722542E0,7.777656358E0,6.241924344E0,-3.113751386E0,1.044744015E1
6.374712542E0,6.012571403E0,5.249197519E0,-1.480649782E0,8.117722171E0
6.384702542E0,3.911638752E0,3.483928376E0,1.582797423E0,5.472104014E0
6.394692542E0,5.183264315E-1,2.135235926E0,7.125390682E0,7.456479539E0
6.404682542E0,-6.914837124E0,-3.765144950E-1,2.004428800E1,2.120684364E1
6.414672542E0,-1.761166503E1,-4.507815598E0,3.316789342E1,3.782327723E1
6.424662542E0,-2.184694950E1,-1.257829291E1,1.818993477E1,3.108659490E1
6.434653542E0,-2.251061082E1,-1.669356914E1,-9.188937405E-1,2.804010014E1
6.444643542E0,-2.051708918E1,-1.674248110E1,-4.979223386E0,2.694539455E1
6.454633542E0,-1.099147904E1,-1.262007361E1,-2.185816388E0,1.687769720E1
6.464623542E0,-1.871510128E0,-3.553358799E0,3.338383577E0,5.222424133E0
6.474613542E0,2.854906551E0,2.775312497E0,5.492960923E0,6.784207438E0
6.484603542E0,5.048105341E0,6.342451429E0,4.857109257E0,9.449950688E0
6.494593542E0,5.047632301E0,6.880428599E0,-2.324721381E-1,8.536564463E0
6.504583542E0,5.082959424E0,6.212703468E0,-3.275656986E0,8.669722578E0
6.514573542E0,3.481076689E0,3.863782800E0,-2.181938222E0,5.639819753E0
6.524564542E0,-1.436175567E0,-2.063833237E-2,-1.556822629E0,2.118188589E0
6.534554542E0,-5.986003994E0,-4.407183262E0,-5.039523675E-1,7.450468180E0
6.544544542E0,-8.344790668E0,-9.715375094E0,-8.554339675E0,1.540132370E1
6.554534542E0,-7.470991532E0,-9.775401440E0,-9.077081923E0,1.528946055E1
6.564524542E0,-2.767558504E0,-8.498204066E0,-2.855043375E-1,8.942055980E0
6.574514542E0,5.489543225E0,-3.719809148E0,1.779683114E0,6.865809268E0
6.584504542E0,9.474486181E0,2.775796062E-1,-2.398820221E-2,9.478581870E0
6.594494542E0,1.064493562E1,2.346044422E0,-1.468231757E0,1.099883099E1
6.604485542E0,9.682881532E0,2.527962996E0,-5.583290464E0,1.145957783E1
6.614475542E0,7.586945912E0,1.316898800E0,-8.796513221E0,1.169079191E1
6.624465542E0,6.741170141E0,-8.865805650E-1,-8.809951292E0,1.112855075E1
6.634455542E0,6.067787830E0,-2.999921592E0,-8.202675846E0,1.063491748E1
6.644445542E0,5.308440923E0,-4.332762240E0,-6.289176863E0,9.300866587E0
6.654435417E0,5.053338014E0,-5.285057323E0,-3.706205016E0,8.197805292E0
6.664425417E0,5.454948758E0,-6.841566249E0,4.070422817E0,9.650483750E0
6.674415417E0,5.306099698E0,-7.678474717E0,5.930421531E0,1.105819007E1
6.684405417E0,4.316519260E0,-5.520428803E0,-1.984956636E0,7.283373225E0
6.694396417E0,3.638387255E0,-3.651373921E0,-4.561366153E0,6.883055608E0
6.704386417E0,2.519169368E0,-2.219607155E0,-2.625148398E0,4.261956632E0
6.714376417E0,1.145401426E0,-8.060720068E-1,-2.560840903E-1,1.423824276E0
6.724366417E0,1.498208678E-1,-1.460687095E-1,-4.226273918E-1,4.715890930E-1
6.734356417E0,-3.227911547E-1,1.328668660E-1,-1.859761902E0,1.892237318E0
6.744346417E0,-5.755461144E-1,1.113081819E-1,-2.639526701E0,2.703838761E0
6.754336417E0,-6.933520147E-1,2.835882050E-1,-2.688335749E0,2.790754089E0
6.764326417E0,-8.177421722E-1,1.119758170E0,-2.129226158E0,2.540898394E0
6.774317417E0,-1.111815312E0,2.354375535E0,-8.307373166E-1,2.733009685E0
6.784307417E0,-1.376060343E0,3.623283897E0,6.691215916E-1,3.933122420E0
6.794297417E0,-1.410706557E0,4.358527996E0,1.665330287E0,4.874441942E0
6.804287417E0,-1.002362744E0,4.283981259E0,1.858680167E0,4.776182415E0
6.814277417E0,-3.799283919E-1,3.897118946E0,1.683133889E0,4.262020806E0
6.824267417E0,-3.183311909E-2,3.578493640E0,1.354086506E0,3.826248861E0
6.834257417E0,-6.397555590E-2,3.125887574E0,1.440507184E0,3.442430383E0
6.844247417E0,-2.771381414E-1,2.881284510E0,1.892801156E0,3.458511557E0
6.854237417E0,-7.343205312E-1,2.439433812E0,2.036768814E0,3.261669997E0
6.864227417E0,-1.527931829E0,2.009374609E0,1.937366002E0,3.182066784E0
6.874218417E0,-2.227085451E0,1.755056981E0,1.486184171E0,3.201386887E0
6.884208417E0,-2.896523231E0,1.586865331E0,6.862043783E-1,3.373257306E0
6.894198417E0,-3.246271804E0,1.382442579E0,2.589372209E-1,3.537863281E0
6.904188417E0,-3.334679950E0,1.397613180E0,3.973370147E-1,3.637483976E0
6.914178417E0,-3.364800420E0,1.930421995E0,1.504756390E0,4.160853607E0
6.924168417E0,-3.591036795E0,2.445218462E0,3.480851863E0,5.566953232E0
6.934158417E0,-4.044667294E0,2.305013925E0,5.672449978E0,7.338195382E0
6.944148417E0,-4.544170076E0,1.484441409E0,6.486538517E0,8.057805527E0
6.954139417E0,-4.912078639E0,6.336721158E-1,4.980388151E0,7.023839623E0
6.964129417E0,-4.986846401E0,4.169357121E-2,2.297940549E0,5.490984078E0
6.974119417E0,-4.619075248E0,-2.052197278E-1,8.116870880E-2,4.624344239E0
6.984109417E0,-4.628255084E0,-2.106213856E-1,-1.135659088E0,4.770202098E0
6.994099417E0,-5.291186374E0,-3.026518822E-3,-1.293048884E0,5.446892493E0
7.004089417E0,-6.507745784E0,1.762760103E-2,-5.631755988E-1,6.532092519E0
7.014079417E0,-7.601759833E0,-2.480628616E-1,8.043418157E-1,7.648218975E0
7.024069417E0,-8.176613637E0,-3.620800585E-1,2.330682617E0,8.510005523E0
7.034059417E0,-7.965999852E0,-1.426165134E-1,4.262232248E0,9.035713411E0
7.044050417E0,-7.872735593E0,-4.491907078E-1,5.908215560E0,9.853362326E0
7.054040417E0,-8.066654407E0,-1.167420579E0,6.447582028E0,1.039255013E1
7.064030417E0,-7.513611302E0,-1.076893986E0,5.630519010E0,9.450756572E0
7.074020417E0,-6.132841612E0,-1.022133642E0,4.779231069E0,7.842037556E0
7.084010417E0,-5.173436315E0,-2.400108948E0,5.228966153E0,7.737380260E0
7.094000417E0,-4.277498159E0,-4.216575726E0,4.284001139E0,7.377612562E0
7.103990417E0,-2.809432755E0,-5.328204512E0,1.524248668E0,6.213373458E0
7.113980417E0,-1.012380194E0,-5.885582158E0,1.387684973E-1,5.973629357E0
7.123971417E0,9.120101058E-1,-6.627723632E0,-7.623611462E-1,6.733474400E0
7.133961417E0,2.026302883E0,-7.564227140E0,-3.544607856E0,8.595794347E0
7.143951417E0,2.540252089E0,-8.750581003E0,-6.086135808E0,1.095749048E1
7.153941417E0,2.566504625E0,-9.953420506E0,-6.709741942E0,1.227510337E1
7.163931417E0,2.140584082E0,-1.061877284E1,-4.515727465E0,1.173593760E1
7.173921417E0,1.508457677E0,-1.057530697E1,-1.881552136E-1,1.068400508E1
7.183911417E0,6.919592080E-1,-9.924820604E0,2.877537029E0,1.035669305E1
7.193901417E0,-2.721361408E-1,-9.026736227E0,2.842115182E0,9.467504619E0
7.203891417E0,-9.401954395E-1,-7.889096103E0,1.364183478E0,8.061191062E0
7.213882417E0,-9.861060226E-1,-6.699889383E0,-2.862942964E-1,6.778118268E0
7.223872417E0,-4.133431828E-1,-5.131703568E0,-2.010130654E0,5.526830858E0
7.233862417E0,4.666703743E-1,-3.115971866E0,-3.558832378E0,4.753141046E0
7.243852417E0,1.356078068E0,-1.302910506E0,-4.690176221E0,5.053145208E0
7.253842417E0,2.062498317E0,1.781675845E-1,-5.333835965E0,5.721490112E0
7.263832417E0,2.652547281E0,1.449064000E0,-5.135314808E0,5.958796164E0
7.273822417E0,3.150969790E0,2.121568059E0,-4.499753457E0,5.888755626E0
7.283812417E0,3.597806409E0,2.281476544E0,-3.790490583E0,5.702382400E0
7.293803417E0,4.200164931E0,2.366679246E0,-3.340839407E0,5.865472193E0
7.303793417E0,4.638900817E0,2.472475258E0,-3.020243590E0,6.062541219E0
7.313783417E0,5.282493904E0,2.568133367E0,-2.765870413E0,6.492310065E0
7.323773417E0,6.043414881E0,2.729847472E0,-2.913746789E0,7.243262455E0
7.333763417E0,6.468190539E0,2.988404331E0,-3.352620962E0,7.874523263E0
7.343753417E0,6.557868116E0,3.158992755E0,-3.891420542E0,8.253970154E0
7.353743417E0,6.773072550E0,3.554598994E0,-4.620763046E0,8.936505855E0
7.363733417E0,7.309197321E0,3.916467968E0,-5.348887868E0,9.867810712E0
7.373723417E0,7.713570875E0,4.247048491E0,-5.856524420E0,1.057522930E1
7.383714417E0,8.193971096E0,4.637285816E0,-6.002431161E0,1.116578532E1
7.393704417E0,8.680529020E0,4.931831703E0,-5.722871103E0,1.150764101E1
7.403694417E0,9.013465387E0,5.231806730E0,-4.922100767E0,1.152568592E1
7.413684417E0,9.236391653E0,5.411797476E0,-3.883559546E0,1.138773540E1
7.423674417E0,9.226653115E0,5.620078806E0,-3.331984676E0,1.130568598E1
7.433664417E0,8.617749805E0,6.270454078E0,-3.306478537E0,1.115871885E1
7.443654417E0,7.146645311E0,7.017770923E0,-3.492705631E0,1.060766895E1
7.453644417E0,5.232389113E0,6.008124011E0,-3.540223029E0,8.718292783E0
7.463634417E0,3.383137581E0,3.644748441E0,-1.507761274E0,5.196456018E0
7.473625417E0,6.139921421E-1,1.151747702E0,2.091126870E0,2.465019413E0
7.483615417E0,-5.376405450E0,-1.987649279E0,9.582397715E0,1.116596754E1
7.493605417E0,-1.648809330E1,-5.338715467E0,3.710654280E1,4.095429919E1
7.503595417E0,-2.131779520E1,-1.174037989E1,2.810546532E1,3.717797860E1
7.513585417E0,-1.997487921E1,-1.577181991E1,2.433674012E0,2.556694882E1
7.523575417E0,-1.863986048E1,-1.438155317E1,-3.216500121E0,2.376172012E1
7.533565417E0,-1.208838278E1,-9.661072002E0,-4.835946137E0,1.621270136E1
7.543555417E0,-3.141888480E0,-2.548712425E0,-1.395899653E0,4.279711916E0
7.553546417E0,2.505650606E0,1.897671155E0,2.372395192E0,3.937981681E0
7.563536417E0,5.665837947E0,4.316679474E0,3.953892487E0,8.146699154E0
7.573526417E0,6.198507598E0,4.964939223E0,4.218216455E-1,7.952990094E0
7.583516417E0,5.193946593E0,3.860368026E0,-2.907330347E0,7.094511418E0
7.593506417E0,3.696605642E0,1.729361392E0,3.224330127E-2,4.081252716E0
7.603496417E0,-1.366079146E-1,-1.898211438E0,6.530611321E0,6.802260845E0
7.613486417E0,-5.755907287E0,-6.510509178E0,1.548398370E1,1.775587085E1
7.623476417E0,-9.945257792E0,-1.198975078E1,6.076938137E-2,1.557773954E1
7.633467417E0,-8.400494753E0,-9.551035590E0,-1.825911903E1,2.225277557E1
7.643457417E0,-3.030186780E0,-3.937402754E0,-1.613798074E1,1.688548473E1
7.653447667E0,1.821312951E0,2.807066971E-1,-8.741180434E0,8.933320351E0
7.663437667E0,7.526969267E0,3.695488240E0,-1.459523499E0,8.511292999E0
7.673427667E0,1.311615139E1,6.557285734E0,7.059549864E0,1.627478625E1
7.683417667E0,1.244639844E1,5.410373679E0,2.024527084E0,1.372165032E1
7.693407667E0,8.850240946E0,1.692259639E0,-8.526986985E0,1.240564446E1
7.703397667E0,6.717792388E0,-1.504465199E0,-1.005218699E1,1.218353863E1
7.713387667E0,5.716563712E0,-4.303669419E0,-9.115581746E0,1.158855046E1
7.723378667E0,4.501238065E0,-6.358542967E0,-7.494142413E0,1.080992060E1
7.733368667E0,3.427690440E0,-7.410652360E0,-5.280049767E0,9.723464182E0
7.743358667E0,2.528262958E0,-8.175692115E0,-3.545125335E0,9.262935215E0
7.753348667E0,2.105850159E0,-8.245010272E0,-2.173601847E0,8.782900675E0
7.763338667E0,1.921133108E0,-6.729658728E0,1.183140818E0,7.097808197E0
7.773328667E0,2.139525151E0,-3.673316182E0,5.021794040E0,6.579455526E0
7.783318667E0,2.244062549E0,-2.312435796E0,2.899058291E0,4.334479786E0
7.793308667E0,1.989248785E0,-1.892347850E0,-2.699004579E-1,2.758792738E0
7.803299667E0,1.395927720E0,-1.030560064E0,-2.344682606E0,2.916882714E0
7.813289667E0,6.713857797E-1,-6.558102590E-1,-3.225007235E0,3.358797050E0
7.823279667E0,2.430871734E-1,-7.589282459E-1,-2.806562941E0,2.917509040E0
7.833269667E0,2.480090672E-1,-7.922246307E-1,-2.333322051E0,2.476594467E0
7.843259667E0,2.616050130E-1,-2.662652439E-1,-1.991230699E0,2.025915610E0
7.853249667E0,1.099408105E-1,8.857613701E-1,-1.592907697E0,1.825928563E0
7.863239667E0,-1.910718048E-1,2.229425215E0,-8.488859046E-1,2.393209665E0
7.873229667E0,-7.205810362E-1,3.274703890E0,1.590683855E-2,3.353084494E0
7.883219667E0,-1.116166517E0,3.925265104E0,5.677354038E-1,4.120176855E0
7.893210667E0,-1.206763569E0,4.221798459E0,8.833787028E-1,4.478863525E0
7.903200667E0,-1.027033901E0,4.163888220E0,1.126088365E0,4.434054437E0
7.913190667E0,-7.830114654E-1,3.780925416E0,1.364816147E0,4.095268864E0
7.923180667E0,-6.049061537E-1,3.406494868E0,1.562689287E0,3.796329352E0
7.933170667E0,-6.904029715E-1,2.997135394E0,1.878534826E0,3.603938113E0
7.943160667E0,-1.080523353E0,2.675441469E0,2.188153374E0,3.621261238E0
7.953150667E0,-1.667871487E0,2.432135317E0,2.050942611E0,3.592136286E0
7.963140667E0,-2.278051683E0,2.162187497E0,1.407939509E0,3.441927934E0
7.973131667E0,-2.490893695E0,1.952229186E0,5.294020812E-1,3.208740681E0
7.983121667E0,-2.308891799E0,1.957014547E0,-2.593694763E-1,3.037788637E0
7.993111667E0,-2.047619346E0,2.268574077E0,-8.269037358E-1,3.165903208E0
8.003101667E0,-1.892643719E0,2.601020447E0,-8.910782433E-1,3.337877776E0
8.013091667E0,-1.941813248E0,2.623083746E0,-2.534092632E-1,3.273442115E0
8.023081667E0,-2.277010002E0,1.970705218E0,1.387961473E0,3.315854438E0
8.033071667E0,-2.881614878E0,9.470676720E-1,3.316966688E0,4.494764675E0
8.043061667E0,-3.485341648E0,1.362535733E-1,5.266229289E0,6.316592622E0
8.053051667E0,-3.815187176E0,-6.538648903E-2,6.522917554E0,7.557008800E0
8.063042667E0,-4.247575325E0,1.300765747E-1,5.857961665E0,7.237025005E0
8.073032667E0,-5.228332314E0,2.276835608E-1,3.281219442E0,6.176868108E0
8.083022667E0,-5.344519998E0,2.309305197E-1,3.009504886E-1,5.357965482E0
8.093012667E0,-4.944731246E0,-2.283454657E-2,-1.711904383E0,5.232734001E0
8.103002667E0,-5.538706030E0,1.694786221E-1,-2.336984746E0,6.013940904E0
8.112992667E0,-7.211292711E0,3.474117333E-1,-1.723144340E0,7.422443257E0
8.122982667E0,-8.863094296E0,6.906204879E-2,-6.325810254E-3,8.863365618E0
8.132972667E0,-9.707729275E0,-1.652744740E-1,1.585276350E0,9.837704225E0
8.142963667E0,-1.035485993E1,-1.755024236E-1,2.869519912E0,1.074653757E1
8.152953667E0,-1.088116430E1,-1.622198886E-1,3.819790396E0,1.153329313E1
8.162943667E0,-1.104071844E1,-3.694914043E-2,4.109647401E0,1.178083319E1
8.172933667E0,-1.042733032E1,2.037766349E-1,3.438520653E0,1.098153754E1
8.182923667E0,-8.083772716E0,1.327148384E-1,2.575076351E0,8.485046421E0
8.192913667E0,-5.826440495E0,-1.030075330E0,3.022267896E0,6.643987302E0
8.202903667E0,-4.444587316E0,-3.281708270E0,5.322870097E0,7.671825835E0
8.212893667E0,-2.739768443E0,-5.190755183E0,7.782639356E0,9.747807232E0
8.222884667E0,-1.507796357E0,-6.176109838E0,5.808643910E0,8.611511288E0
8.232874667E0,-3.761277017E-1,-6.506701471E0,1.445539298E0,6.675943375E0
8.242864667E0,1.549306326E0,-6.935631577E0,-1.567216347E0,7.277327981E0
8.252854667E0,3.215400552E0,-7.476774428E0,-3.860379721E0,9.007968037E0
8.262844667E0,4.102030233E0,-8.132369510E0,-5.384118512E0,1.058068136E1
8.272834667E0,4.158198587E0,-8.854315286E0,-5.701014211E0,1.132214987E1
8.282824667E0,3.635381786E0,-9.229315937E0,-4.638992618E0,1.095064043E1
8.292814667E0,2.912912392E0,-9.424021202E0,-1.748956581E0,1.001778835E1
8.302805667E0,1.606717213E0,-9.364666700E0,1.598801837E0,9.635076021E0
8.312795667E0,-9.429512322E-3,-9.138143227E0,3.177078193E0,9.674687406E0
8.322785667E0,-1.354823548E0,-8.879034390E0,2.628561417E0,9.358532667E0
8.332775667E0,-1.927919971E0,-8.292383244E0,7.899564958E-1,8.550118511E0
8.342765667E0,-1.493814495E0,-7.083798267E0,-1.707191674E0,7.438157235E0
8.352755667E0,-5.101087546E-1,-5.269131262E0,-4.090951222E0,6.690279299E0
8.362745667E0,8.128454214E-1,-2.919625288E0,-5.512326901E0,6.290522821E0
8.372735667E0,2.118201817E0,-1.172526952E0,-5.872250506E0,6.351765455E0
8.382725667E0,3.341942777E0,4.257731938E-1,-5.138987444E0,6.144839810E0
8.392716667E0,4.596310283E0,1.695683768E0,-3.814038783E0,6.208728009E0
8.402706667E0,5.605484741E0,2.093998438E0,-3.069255536E0,6.725073842E0
8.412696667E0,6.137046345E0,2.131289640E0,-2.678072424E0,7.026934273E0
8.422686667E0,6.402621617E0,2.231201599E0,-2.635935341E0,7.274611967E0
8.432676667E0,6.638124075E0,2.251199076E0,-2.948376339E0,7.604308749E0
8.442666667E0,6.878842834E0,2.555765337E0,-3.346807076E0,8.065453043E0
8.452656667E0,6.976712360E0,3.072434667E0,-3.799372796E0,8.517605519E0
8.462646667E0,6.939633411E0,3.721830531E0,-4.256303171E0,8.951349120E0
8.472637667E0,6.837875487E0,4.307150266E0,-4.661427508E0,9.329361768E0
8.482627667E0,6.914015005E0,4.790322068E0,-5.021629733E0,9.796303087E0
8.492617667E0,7.361746833E0,5.112659771E0,-5.282926013E0,1.040403353E1
8.502607667E0,7.978897056E0,5.315551722E0,-5.470322843E0,1.103822089E1
8.512597667E0,8.441811764E0,5.531035652E0,-5.214796010E0,1.136004572E1
8.522587667E0,8.814711510E0,5.767638556E0,-4.538860512E0,1.147022442E1
8.532577667E0,9.201500732E0,6.041282401E0,-3.851304550E0,1.166178612E1
8.542567667E0,9.349987850E0,6.351275463E0,-3.538091134E0,1.184394620E1
8.552557667E0,8.682106014E0,6.970214934E0,-3.643042808E0,1.171471818E1
8.562548667E0,7.109120219E0,7.426571404E0,-4.149711061E0,1.108664309E1
8.572538667E0,4.677127574E0,6.712086090E0,-4.290188955E0,9.237604847E0
8.582528667E0,2.684341516E0,4.971187558E0,-2.348142988E0,6.118183603E0
8.592518667E0,6.500408113E-2,2.753787727E0,6.389781716E-1,2.827696143E0
8.602508667E0,-5.781701694E0,-6.703838593E-1,7.530809133E0,9.517908131E0
8.612498667E0,-1.591883528E1,-5.310419036E0,3.250247794E1,3.657896854E1
8.622488667E0,-2.255540985E1,-1.108582036E1,3.141311827E1,4.022966475E1
8.632478667E0,-2.161496473E1,-1.671784444E1,1.787736484E0,2.738410168E1
8.642469667E0,-2.003765960E1,-1.704861909E1,-2.909696423E0,2.646940778E1
8.652460042E0,-1.372385017E1,-1.238773333E1,-1.068959022E0,1.851871145E1
8.662450042E0,-4.086699126E0,-4.006336164E0,4.325787097E0,7.173860412E0
8.672440042E0,1.934530249E0,8.265021783E-1,7.362139181E0,7.656801320E0
8.682430042E0,5.104869525E0,2.760004486E0,6.190243728E0,8.485071305E0
8.692420042E0,5.699483410E0,2.379536104E0,1.428249374E0,6.339258591E0
8.702410042E0,4.467802516E0,-9.514694560E-1,-1.702810647E0,4.875050518E0
8.712400042E0,-1.617082572E-1,-4.825294265E0,-2.098891534E0,5.264499973E0
8.722391042E0,-7.915369397E0,-6.951243058E0,1.115889652E0,1.059330272E1
8.732381042E0,-1.057249329E1,-7.516229101E0,-1.378942318E1,1.893197048E1
8.742371042E0,-3.801152104E0,-4.740457597E0,-1.678458222E1,1.785057130E1
8.752361042E0,2.440596823E0,-4.478616357E-1,-7.995974434E0,8.372138320E0
8.762351042E0,1.080190529E1,4.343759099E0,6.143419225E0,1.316400398E1
8.772341042E0,1.559766761E1,6.991152644E0,1.454378768E1,2.244293230E1
8.782331042E0,1.238339937E1,4.670939466E0,1.697113413E-1,1.323612698E1
8.792321042E0,8.684568862E0,5.112127090E-1,-1.142282814E1,1.435841486E1
8.802312042E0,7.418410445E0,-2.879413401E0,-1.123553246E1,1.376811624E1
8.812302042E0,6.821103333E0,-5.538330054E0,-1.113018903E1,1.418032645E1
8.822292042E0,5.601835493E0,-7.274200566E0,-9.152556614E0,1.296394413E1
8.832282042E0,4.664518054E0,-8.113914528E0,-6.108994328E0,1.117645513E1
8.842272042E0,4.230208510E0,-8.523527187E0,-3.905147758E0,1.028568708E1
8.852262042E0,3.648297701E0,-8.567770144E0,-2.393836640E0,9.614947489E0
8.862252042E0,2.849047056E0,-7.064175012E0,-1.680237983E-1,7.618915259E0
8.872242042E0,2.268341943E0,-3.693372717E0,3.469703854E0,5.552046653E0
8.882233042E0,2.059143185E0,-1.819908450E0,3.256702067E0,4.261249321E0
8.892223042E0,1.676058466E0,-1.127930823E0,1.009864356E0,2.258589370E0
8.902213042E0,1.085329179E0,-3.398600543E-1,-9.409123081E-1,1.476062416E0
8.912203042E0,4.458785525E-1,2.429635048E-2,-2.351053732E0,2.393084129E0
8.922193042E0,1.875786781E-2,-2.080474412E-1,-2.851223974E0,2.858865815E0
8.932183042E0,-4.749868691E-2,-1.552587783E-1,-2.596491194E0,2.601562594E0
8.942173042E0,-1.284539723E-1,4.288400584E-1,-2.010601355E0,2.059835437E0
8.952163042E0,-4.141480520E-1,1.215075386E0,-1.481822441E0,1.960541902E0
8.962153042E0,-6.939285502E-1,1.994602788E0,-1.072482262E0,2.368585087E0
8.972144042E0,-9.034898356E-1,2.641717653E0,-8.390555656E-1,2.915301062E0
8.982134042E0,-8.710184929E-1,3.052955253E0,-7.271188811E-1,3.256978793E0
8.992124042E0,-5.904532984E-1,3.163032596E0,-6.906076241E-1,3.290949588E0
9.002114042E0,-2.225040972E-1,3.005437270E0,-4.713195685E-1,3.050295624E0
9.012104042E0,1.270322219E-1,2.708329718E0,-1.622478090E-2,2.711355803E0
9.022094042E0,3.220482659E-1,2.386862081E0,7.593673718E-1,2.525364228E0
9.032084042E0,2.753702357E-1,2.095001235E0,1.752752008E0,2.745359456E0
9.042074042E0,3.324873000E-2,1.951403559E0,2.622462187E0,3.269004321E0
9.052065042E0,-3.754011852E-1,1.932699485E0,3.075976911E0,3.652107242E0
9.062055042E0,-1.004994576E0,2.008222708E0,2.783565842E0,3.576480300E0
9.072045042E0,-2.023177839E0,1.893807900E0,1.677801229E0,3.239563843E0
9.082035042E0,-3.118075694E0,1.658638734E0,3.582976408E-1,3.549909250E0
9.092025042E0,-3.664293052E0,1.557496521E0,-5.843401806E-1,4.024213268E0
9.102015042E0,-3.884401837E0,1.771176000E0,-8.537494723E-1,4.353680077E0
9.112005042E0,-3.905436318E0,2.160090685E0,-4.003345898E-1,4.480925394E0
9.121995042E0,-3.639106463E0,2.433543327E0,1.014574946E0,4.493839260E0
9.131986042E0,-3.208440319E0,2.198706282E0,3.308063425E0,5.106043695E0
9.141976042E0,-3.164157016E0,1.439387442E0,5.786275971E0,6.750164105E0
9.151966042E0,-3.609275138E0,6.543449467E-1,6.686702743E0,7.626731141E0
9.161956042E0,-4.508133101E0,3.139294070E-1,4.790817327E0,6.585874763E0
9.171946042E0,-5.275480168E0,3.349957556E-1,1.312465002E0,5.446602386E0
9.181936042E0,-4.731325124E0,1.338129455E-1,-1.591125612E0,4.993498177E0
9.191926042E0,-4.398310989E0,1.317810380E-1,-3.064101216E0,5.362016604E0
9.201916042E0,-4.963969170E0,2.970993662E-1,-3.763501005E0,6.236441114E0
9.211907042E0,-6.155520623E0,-1.793341041E-3,-3.643464977E0,7.152990591E0
9.221897042E0,-7.729922614E0,-7.426607072E-1,-1.991830477E0,8.016896980E0
9.231887042E0,-8.533965636E0,-1.159109931E0,1.399848278E-1,8.613460458E0
9.241877042E0,-8.204962692E0,-1.118655385E0,1.920087918E0,8.500561174E0
9.251867042E0,-7.282032911E0,-9.611962992E-1,3.744204024E0,8.244450583E0
9.261857042E0,-6.807514989E0,-9.923900253E-1,5.234027503E0,8.644197024E0
9.271847042E0,-7.177382369E0,-1.438072988E0,5.503988771E0,9.158425847E0
9.281837042E0,-7.933669428E0,-2.301610261E0,4.539016925E0,9.425666821E0
9.291828042E0,-7.624667469E0,-2.793072245E0,3.462785136E0,8.827666027E0
9.301818042E0,-6.334881039E0,-2.771824048E0,3.118612468E0,7.585477576E0
9.311808042E0,-4.789846689E0,-2.709795030E0,3.736961371E0,6.652104982E0
9.321798042E0,-3.223671731E0,-2.501880906E0,4.801998957E0,6.301639587E0
9.331788042E0,-2.006251319E0,-2.592355458E0,5.431200292E0,6.343759752E0
9.341778042E0,-1.185451930E0,-2.956756861E0,3.856347481E0,5.001911965E0
9.351768042E0,-3.458920419E-1,-3.287573027E0,8.732933521E-1,3.419125472E0
9.361758042E0,8.643064740E-1,-3.371736095E0,-8.680004525E-1,3.587346479E0
9.371749042E0,1.704086802E0,-3.801967206E0,-1.518140666E0,4.434367773E0
9.381739042E0,1.815853113E0,-4.752036254E0,-2.582296493E0,5.705035168E0
9.391729042E0,1.510820830E0,-5.900984309E0,-3.896509082E0,7.230973545E0
9.401719042E0,1.119200638E0,-6.770783365E0,-4.156693221E0,8.023354409E0
9.411709042E0,6.611832654E-1,-7.458788978E0,-2.941942940E0,8.045229928E0
9.421699042E0,-9.799670309E-2,-8.296166393E0,-5.138381819E-1,8.312641568E0
9.431689042E0,-1.024331903E0,-8.894837075E0,1.802930474E0,9.133342255E0
9.441679042E0,-1.389555132E0,-8.926686274E0,2.204276779E0,9.299216495E0
9.451670042E0,-8.568492275E-1,-8.691707143E0,5.865090591E-1,8.753511097E0
9.461660042E0,6.076625311E-1,-7.805201422E0,-1.954069889E0,8.069003168E0
9.471650042E0,2.328791043E0,-6.209822545E0,-4.101358096E0,7.797839572E0
9.481640042E0,3.846532930E0,-4.155824325E0,-5.187067344E0,7.679346263E0
9.491630042E0,5.222375756E0,-1.882291809E0,-5.454491506E0,7.782525848E0
9.501620042E0,6.066411395E0,-1.149983597E-1,-5.093281513E0,7.921874047E0
9.511610042E0,6.469921900E0,9.861937308E-1,-4.416742583E0,7.895573602E0
9.521600042E0,6.425355592E0,1.503610336E0,-3.665886126E0,7.548825048E0
9.531590042E0,5.962206995E0,1.766075474E0,-3.087909324E0,6.942774577E0
9.541581042E0,5.552050545E0,2.132129300E0,-3.012807393E0,6.666952002E0
9.551571042E0,5.246793144E0,2.486022087E0,-3.316311800E0,6.686334427E0
9.561561042E0,5.233492482E0,2.859038778E0,-3.724792438E0,7.031189444E0
9.571551042E0,5.350096487E0,3.246464762E0,-4.037925162E0,7.447677859E0
9.581541042E0,5.753337436E0,3.601543365E0,-4.096469239E0,7.927992588E0
9.591531042E0,6.532668956E0,3.818849872E0,-4.029901028E0,8.573183792E0
9.601521042E0,7.499420110E0,3.844370044E0,-3.825910092E0,9.255164561E0
9.611511042E0,8.351120864E0,3.922585909E0,-3.655402945E0,9.924206295E0
9.621502042E0,8.895004306E0,4.242451994E0,-3.593365156E0,1.048960312E1
9.631492042E0,9.047538866E0,4.875192064E0,-3.457363598E0,1.084337679E1
9.641482042E0,9.115189982E0,5.552591413E0,-3.115002105E0,1.111850700E1
9.651471792E0,9.238644585E0,6.053069803E0,-2.672784494E0,1.136380151E1
9.661461792E0,8.866648234E0,6.652691243E0,-2.591215543E0,1.138376694E1
9.671451792E0,7.691938516E0,7.401188641E0,-2.646855016E0,1.099769762E1
9.681441792E0,6.223911996E0,7.579318804E0,-2.142339270E0,1.003856422E1
9.691431792E0,4.596290987E0,6.571108552E0,-2.090702654E-1,8.021787133E0
9.701422792E0,1.860203952E0,5.577095924E0,3.312093911E0,6.747912548E0
9.711412792E0,-3.921961427E0,2.898561278E0,1.103948702E1,1.206870799E1
9.721402792E0,-1.477795463E1,-1.661463524E0,3.419413590E1,3.728789795E1
9.731392792E0,-2.306740140E1,-8.953879920E0,2.305117655E1,3.381765387E1
9.741382792E0,-2.530442215E1,-1.536934085E1,-3.281042857E0,2.978750847E1
9.751372792E0,-2.465885914E1,-1.766800295E1,-7.147387322E0,3.116573130E1
9.761362792E0,-1.779729307E1,-1.430532536E1,-1.795995823E0,2.290440079E1
9.771352792E0,-7.989799774E0,-6.089210858E0,5.415898713E0,1.141259603E1
9.781343792E0,-7.068833488E-1,5.180352402E-1,9.105020505E0,9.147100249E0
9.791333792E0,3.170726362E0,4.779259720E0,7.035448810E0,9.077024243E0
9.801323792E0,3.941890492E0,5.992226601E0,8.146978194E-1,7.218657273E0
9.811313792E0,4.527601991E0,5.309644865E0,-3.775381086E0,7.933789178E0
9.821303792E0,5.043223500E0,4.059327140E0,-4.928870088E0,8.136706979E0
9.831293792E0,3.655885048E0,1.728859701E0,-5.960006104E0,7.202508181E0
9.841283792E0,1.961758393E-1,-1.462045403E0,-6.189813958E0,6.363164193E0
9.851274792E0,-4.240187368E0,-6.259124513E0,-6.709525595E0,1.010809390E1
9.861264792E0,-5.771664364E0,-9.738293256E0,-7.752908603E0,1.372057057E1
9.871254792E0,-4.349806289E0,-1.017416459E1,2.079321195E0,1.125868627E1
9.881244792E0,3.567814286E0,-6.640305671E0,6.936511583E0,1.024393241E1
9.891234792E0,8.844447525E0,-1.959079784E0,3.552230871E0,9.730395151E0
9.901224792E0,1.044574437E1,9.922993934E-1,1.106728527E0,1.055097538E1
9.911214792E0,9.800300054E0,1.723235849E0,-2.725211214E0,1.031708288E1
9.921204792E0,8.164535628E0,8.699604392E-1,-7.325746695E0,1.100377380E1
9.931195792E0,7.489185728E0,-6.466698915E-1,-8.592095731E0,1.141622503E1
9.941185792E0,7.570565522E0,-2.758681846E0,-8.439505622E0,1.166829221E1
9.951175792E0,7.118814903E0,-4.551754500E0,-7.367159016E0,1.121030894E1
9.961165792E0,6.511110857E0,-5.502812312E0,-4.880569748E0,9.823210727E0
9.971155792E0,6.284480964E0,-5.705952770E0,-1.890476156E0,8.696349699E0
9.981145792E0,6.173543496E0,-4.543553195E0,4.977733516E0,9.139712571E0
9.991135792E0,5.313758966E0,-2.664325912E0,4.511902217E0,7.462702495E0
1.000112579E1,4.380736598E0,-2.394717230E0,-9.973139656E-1,5.091184430E0
1.001111579E1,3.434727564E0,-1.824312572E0,-1.764232432E0,4.270595494E0
1.002110679E1,2.111091018E0,-8.244854736E-1,-8.677946305E-1,2.426839324E0
1.003109679E1,9.860387796E-1,-3.566655368E-1,-9.771843410E-1,1.433308067E0
1.004108679E1,2.758169630E-1,-2.786782980E-1,-1.831883547E0,1.873375008E0
1.005107679E1,-8.396952510E-2,-1.660661870E-1,-2.601750180E0,2.608396606E0
1.006106679E1,-1.860651264E-1,5.997255206E-2,-3.069879434E0,3.076097638E0
1.007105679E1,-3.982734463E-1,6.407308745E-1,-3.074911548E0,3.166107834E0
1.008104679E1,-9.760672304E-1,1.269058051E0,-2.707707574E0,3.145615342E0
1.009103679E1,-1.815854575E0,1.940825361E0,-1.908725170E0,3.272210674E0
1.010102779E1,-2.866443107E0,2.524192126E0,-8.384113486E-1,3.910367702E0
1.011101779E1,-3.335484527E0,2.890835352E0,1.789341545E-1,4.417511007E0
1.012100779E1,-3.033966420E0,3.069538541E0,1.048271281E0,4.441383993E0
1.013099779E1,-2.318491758E0,3.149595695E0,1.754231354E0,4.286336981E0
1.014098779E1,-1.565128891E0,3.115099461E0,2.404662759E0,4.235076869E0
1.015097779E1,-8.587557122E-1,2.958477697E0,2.980022932E0,4.286092432E0
1.016096779E1,-5.201814607E-1,2.565279926E0,3.361491773E0,4.260384583E0
1.017095779E1,-6.269337845E-1,2.047870338E0,3.328225794E0,3.957765257E0
1.018094879E1,-1.176277064E0,1.513576330E0,2.615524465E0,3.242762598E0
1.019093879E1,-1.773303510E0,1.159598173E0,1.503720409E0,2.598162491E0
1.020092879E1,-2.279918407E0,9.423068690E-1,5.234545858E-1,2.521899062E0
1.021091879E1,-2.805187091E0,6.047880399E-1,-7.696192950E-2,2.870673497E0
1.022090879E1,-3.003316485E0,2.562074482E-1,8.704881504E-2,3.015481664E0
1.023089879E1,-3.092690007E0,2.715318310E-1,1.656084670E0,3.518675525E0
1.024088879E1,-3.648179587E0,4.603086036E-1,3.631912633E0,5.168354447E0
1.025087979E1,-4.457976270E0,3.497816098E-1,4.915232627E0,6.644953828E0
1.026086979E1,-4.974733894E0,2.964707905E-1,4.686180526E0,6.840771898E0
1.027085979E1,-5.371569802E0,5.309932548E-1,2.981478889E0,6.166435951E0
1.028084979E1,-5.867128930E0,6.354122472E-1,1.131200147E0,6.008873803E0
1.029083979E1,-6.050888792E0,5.357265759E-1,-1.263387421E-1,6.075871922E0
1.030082979E1,-6.624097774E0,4.605079937E-1,-9.781561482E-1,6.711745554E0
1.031081979E1,-7.928443186E0,1.444613099E-1,-1.476989132E0,8.066137696E0
1.032080979E1,-9.637936909E0,-6.776338220E-1,-1.116017998E0,9.725970986E0
1.033080079E1,-1.111184748E1,-1.462352967E0,-5.711428687E-2,1.120780499E1
1.034079079E1,-1.201856352E1,-1.389726455E0,1.258352383E0,1.216390806E1
1.035078079E1,-1.195873949E1,-5.179276514E-1,2.990557276E0,1.233787388E1
1.036077079E1,-1.098439455E1,-8.766847372E-2,5.469186144E0,1.227096600E1
1.037076079E1,-9.396597176E0,-1.954911304E-1,7.455919164E0,1.199687400E1
1.038075079E1,-7.102918078E0,-3.699276066E-1,7.543773580E0,1.036806691E1
1.039074079E1,-5.417759882E0,-1.770069122E0,6.767354558E0,8.847731605E0
1.040073079E1,-4.535210972E0,-3.850628319E0,6.425207072E0,8.756641077E0
1.041072079E1,-3.421480697E0,-4.766402863E0,4.814899085E0,7.590018419E0
1.042071179E1,-2.176108840E0,-4.386081246E0,2.818383672E0,5.649464125E0
1.043070179E1,-7.574009532E-1,-3.933456468E0,2.339833510E-1,4.012540866E0
1.044069179E1,4.033634475E-1,-3.917564321E0,-3.561284115E0,5.309685191E0
1.045068179E1,1.503820251E0,-4.489695661E0,-6.283145460E0,7.867449354E0
1.046067179E1,2.105979090E0,-5.849902448E0,-6.829404041E0,9.235651906E0
1.047066179E1,1.928721625E0,-7.608500503E0,-4.703494424E0,9.150524947E0
1.048065179E1,1.109934263E0,-9.044943872E0,-9.570816135E-1,9.162912688E0
1.049064279E1,-4.897627831E-2,-9.536946139E0,2.337063099E0,9.819246624E0
1.050063279E1,-1.062033872E0,-9.458673556E0,3.609724789E0,1.017961367E1
1.051062279E1,-1.738251206E0,-9.118436941E0,2.957417012E0,9.742367519E0
1.052061279E1,-1.591099885E0,-8.776378918E0,1.190066114E0,8.998482267E0
1.053060279E1,-5.810875207E-1,-8.282552905E0,-1.010739757E0,8.364205891E0
1.054059279E1,1.299377033E0,-7.290635920E0,-3.115704648E0,8.034262147E0
1.055058279E1,3.445645486E0,-5.639214989E0,-4.479696338E0,7.983789688E0
1.056057279E1,4.824701357E0,-3.762883832E0,-5.185599108E0,8.020441137E0
1.057056379E1,5.680116847E0,-1.970851983E0,-5.264575696E0,7.991479350E0
1.058055379E1,6.136374500E0,-4.050009602E-1,-4.776624380E0,7.786864468E0
1.059054379E1,6.210887323E0,8.298385996E-1,-3.858367402E0,7.358719484E0
1.060053379E1,6.059809304E0,1.508792723E0,-3.205379886E0,7.019416250E0
1.061052379E1,5.861585185E0,1.765893626E0,-2.648040247E0,6.669983383E0
1.062051379E1,5.548687811E0,1.919815730E0,-2.149373324E0,6.252474275E0
1.063050379E1,5.416498053E0,2.204325457E0,-2.177467441E0,6.240101468E0
1.064049379E1,5.532667025E0,2.744702323E0,-2.691289178E0,6.736975040E0
1.065048479E1,6.136687911E0,3.406738113E0,-3.568003736E0,7.873719181E0
1.066047517E1,6.918906201E0,3.728225046E0,-4.674771146E0,9.144638335E0
1.067046517E1,7.580645537E0,4.041225330E0,-5.425629065E0,1.016046946E1
1.068045517E1,8.357207816E0,4.161444084E0,-5.627863204E0,1.090107259E1
1.069044517E1,9.179702312E0,4.023184331E0,-5.402517945E0,1.138596271E1
1.070043517E1,9.623824069E0,4.047547340E0,-4.576937873E0,1.139951707E1
1.071042517E1,9.838224510E0,4.395397614E0,-3.448554475E0,1.131382825E1
1.072041517E1,9.959960032E0,5.033092614E0,-2.613240251E0,1.146131972E1
1.073040617E1,9.730580778E0,5.784711841E0,-2.596880618E0,1.161425341E1
1.074039617E1,8.578722564E0,6.612371183E0,-3.078845262E0,1.126042724E1
1.075038617E1,6.834110464E0,6.830764103E0,-3.000456612E0,1.011766495E1
1.076037617E1,4.820282616E0,5.816207868E0,-1.831834431E0,7.772966991E0
1.077036617E1,2.955837679E0,4.923484218E0,2.661861603E-1,5.748784941E0
1.078035617E1,-1.564884478E-1,4.227155678E0,3.860806568E0,5.727055187E0
1.079034617E1,-6.469074638E0,1.731864585E0,1.977360869E1,2.087687434E1
1.080033717E1,-1.856009159E1,-3.464197531E0,3.852718699E1,4.290479929E1
1.081032717E1,-2.308624347E1,-1.102801478E1,1.014436835E1,2.752271711E1
1.082031717E1,-2.292771844E1,-1.519821390E1,-7.858122817E0,2.860797219E1
1.083030717E1,-1.897862359E1,-1.487655155E1,-7.629998960E0,2.529262390E1
1.084029717E1,-1.054146563E1,-8.386588320E0,-5.125078672E-1,1.348035703E1
1.085028717E1,-2.216668344E0,-5.403429526E-1,5.703885194E0,6.143280505E0
1.086027717E1,2.746238971E0,3.873400885E0,8.030834364E0,9.329488919E0
1.087026717E1,5.022422031E0,5.547368095E0,5.719618882E0,9.418707766E0
1.088025817E1,6.104330004E0,4.233179480E0,6.892129169E-1,7.460406675E0
1.089024817E1,5.898623203E0,-4.964262700E-1,-5.458975151E-2,5.919727593E0
1.090023817E1,2.403573423E0,-8.578067091E0,1.573059762E0,9.046265375E0
1.091022817E1,-4.812007636E0,-1.475108317E1,1.139131749E0,1.555787560E1
1.092021817E1,-8.420593387E0,-1.152253486E1,-1.322901083E1,1.945975155E1
1.093020817E1,-4.876746254E0,-5.977994478E0,-1.295331695E1,1.507672020E1
1.094019817E1,8.425533700E-1,-7.886443806E-1,-5.755971022E0,5.870524554E0
1.095018817E1,6.885517430E0,3.723953070E0,9.878829914E-1,7.890126080E0
1.096017917E1,9.640229602E0,6.378460338E0,2.841442167E0,1.190346910E1
1.097016917E1,8.510292014E0,5.615903894E0,-5.255548180E0,1.147101710E1
1.098015917E1,7.333614124E0,3.362453640E0,-9.011170354E0,1.209500648E1
1.099014917E1,7.027747443E0,-1.711421549E-2,-8.855532677E0,1.130530787E1
1.100013917E1,6.505584653E0,-4.004375592E0,-9.212000577E0,1.196739780E1
1.101012917E1,5.725732146E0,-7.028525707E0,-8.795946041E0,1.263142308E1
1.102011917E1,4.937099460E0,-8.651780600E0,-6.730177960E0,1.202179496E1
1.103010917E1,4.560939306E0,-9.252512426E0,-4.275471806E0,1.116650405E1
1.104010017E1,4.828656414E0,-9.242938780E0,4.220385772E-1,1.043675987E1
1.105009017E1,6.404087514E0,-7.315508806E0,1.023341560E1,1.411565800E1
1.106008017E1,6.333364272E0,-4.053567048E0,6.902860857E0,1.020746770E1
1.107007017E1,4.940745199E0,-3.111234452E0,-1.400898730E0,6.004436708E0
1.108006017E1,3.937269730E0,-2.368686596E0,-4.043044984E0,6.120374323E0
1.109005017E1,2.677946709E0,-1.234399264E0,-3.642031240E0,4.686099836E0
1.110004017E1,1.478521395E0,-6.793517339E-1,-2.529338261E0,3.007506664E0
1.111003017E1,7.671120089E-1,-4.027977294E-1,-1.978331741E0,2.159746125E0
1.112002117E1,3.945318130E-1,7.482623398E-2,-2.034139906E0,2.073398050E0
1.113001117E1,1.922710687E-1,8.376838088E-1,-2.290077213E0,2.446044965E0
1.114000117E1,-2.346648440E-1,1.733153896E0,-2.326410642E0,2.910511379E0
1.114999117E1,-1.039727329E0,2.697932199E0,-1.992551000E0,3.511428564E0
1.115998117E1,-2.195780628E0,3.647047566E0,-1.194373319E0,4.421417888E0
1.116997117E1,-3.232123881E0,4.021471097E0,-5.735779417E-1,5.191131497E0
1.117996117E1,-3.668618529E0,3.779093483E0,-1.002775557E-1,5.267861526E0
1.118995217E1,-3.609562528E0,3.328607032E0,4.904094851E-1,4.934477468E0
1.119994217E1,-3.369830195E0,2.933556279E0,1.142947057E0,4.611706404E0
1.120993217E1,-2.765285107E0,2.590789574E0,1.906129153E0,4.241735575E0
1.121992217E1,-2.038563325E0,2.297687364E0,2.840379728E0,4.183642510E0
1.122991217E1,-1.539487389E0,2.187166802E0,3.530706686E0,4.429402865E0
1.123990217E1,-1.460714577E0,2.221755422E0,3.530797902E0,4.420002043E0
1.124989217E1,-1.961492929E0,2.223796100E0,2.928748698E0,4.167768293E0
1.125988217E1,-2.788052410E0,2.056107311E0,1.998524516E0,3.999364169E0
1.126987317E1,-3.518405898E0,1.720071335E0,1.012740090E0,4.045178359E0
1.127986317E1,-3.945644404E0,1.309667548E0,4.153593028E-1,4.178021326E0
1.128985317E1,-3.977456473E0,1.283217083E0,3.891719627E-1,4.197411214E0
1.129984317E1,-3.639024894E0,1.921321973E0,1.223312505E0,4.293072768E0
1.130983317E1,-3.447635293E0,2.331418197E0,2.945918462E0,5.099032801E0
1.131982317E1,-3.495635671E0,2.254937201E0,5.155788249E0,6.624678331E0
1.132981317E1,-3.771682430E0,1.940731221E0,6.510612674E0,7.770463526E0
1.133980317E1,-4.433985437E0,1.355681042E0,5.361840620E0,7.088542359E0
1.134979417E1,-5.379874603E0,8.461891687E-1,2.336846752E0,5.926207859E0
1.135978417E1,-5.517822699E0,5.519169313E-1,-1.305884984E-1,5.546893995E0
1.136977417E1,-5.595931560E0,5.916417450E-1,-1.462438044E0,5.814053234E0
1.137976417E1,-6.521276241E0,8.673946810E-1,-2.483335876E0,7.031811603E0
1.138975417E1,-7.785764108E0,6.226278949E-1,-2.669651848E0,8.254261277E0
1.139974417E1,-8.962264827E0,1.523778552E-1,-1.415890406E0,9.074698645E0
1.140973417E1,-9.423914198E0,3.274212724E-1,3.667654324E-1,9.436730386E0
1.141972417E1,-8.997034126E0,5.102514267E-1,2.073454684E0,9.246955927E0
1.142971517E1,-8.733414747E0,-1.126232207E-2,3.878119588E0,9.555755937E0
1.143970517E1,-8.232428818E0,-5.127546197E-1,6.037218586E0,1.022173223E1
1.144969517E1,-6.618637059E0,-1.860654187E-1,7.497123324E0,1.000239146E1
1.145968517E1,-4.894379117E0,-3.333953726E-1,7.536279788E0,8.992308517E0
1.146967517E1,-4.762830214E0,-2.200330639E0,6.856442735E0,8.633470539E0
1.147966517E1,-4.659938514E0,-4.018857976E0,5.170160705E0,8.037213952E0
1.148965517E1,-3.714349018E0,-5.089926381E0,3.321349468E0,7.122857677E0
1.149964617E1,-1.939836304E0,-5.706647419E0,2.150117090E0,6.399358808E0
1.150963617E1,-1.118046105E-2,-6.449413961E0,4.820807111E-1,6.467415809E0
1.151962617E1,1.526351911E0,-7.692505696E0,-2.009105637E0,8.095733413E0
1.152961617E1,2.379420622E0,-9.250822581E0,-4.188727777E0,1.042999527E1
1.153960617E1,2.497792532E0,-1.045155416E1,-5.644868077E0,1.213830662E1
1.154959617E1,2.322901143E0,-1.111497457E1,-6.130742462E0,1.290443848E1
1.155958617E1,2.038356041E0,-1.164873064E1,-4.481683221E0,1.264647403E1
1.156957617E1,1.426826746E0,-1.185021049E1,-8.099317539E-1,1.196324841E1
1.157956717E1,4.604071292E-1,-1.132328982E1,2.100074864E0,1.152558812E1
1.158955717E1,-4.022013134E-1,-1.003876647E1,2.533240693E0,1.036126954E1
1.159954717E1,-5.893817961E-1,-8.120323661E0,1.086213717E0,8.213822953E0
1.160953717E1,3.767887294E-2,-5.646169667E0,-1.028776664E0,5.739253700E0
1.161952717E1,1.043431540E0,-3.674033636E0,-3.060239714E0,4.894112754E0
1.162951717E1,1.789051523E0,-2.130069911E0,-4.414712137E0,5.218005982E0
1.163950717E1,2.461756142E0,-7.822288156E-1,-5.042726487E0,5.665793470E0
1.164949717E1,3.104902502E0,4.223566657E-1,-5.197881770E0,6.069331066E0
1.165948858E1,3.674919489E0,1.428197041E0,-4.848306566E0,6.249068459E0
1.166947858E1,4.240486745E0,1.806717716E0,-4.309057628E0,6.309828396E0
1.167946858E1,4.693061237E0,1.760636394E0,-3.773309417E0,6.273956347E0
1.168945858E1,5.110578747E0,1.552534574E0,-3.437215262E0,6.351600388E0
1.169944858E1,5.674546205E0,1.387105148E0,-3.314120556E0,6.716243770E0
1.170943858E1,6.396376791E0,1.603014171E0,-3.361237712E0,7.401432931E0
1.171942858E1,7.249455734E0,2.049101177E0,-3.749139074E0,8.414836176E0
1.172941958E1,7.995670379E0,2.528338387E0,-4.364774284E0,9.453808458E0
1.173940958E1,8.543725224E0,3.176219237E0,-4.915688710E0,1.035604195E1
1.174939958E1,8.921433721E0,4.018289627E0,-5.175788065E0,1.106921015E1
1.175938958E1,9.264355962E0,4.724221634E0,-5.306761603E0,1.167511371E1
1.176937958E1,9.567714188E0,5.207449569E0,-5.191741608E0,1.206701565E1
1.177936958E1,9.656170866E0,5.493175516E0,-4.601869816E0,1.202471700E1
1.178935958E1,9.568211786E0,5.737686778E0,-3.818855134E0,1.179217456E1
1.179934958E1,9.623567961E0,5.968780435E0,-3.236011402E0,1.177757063E1
1.180934058E1,9.589899108E0,6.209944167E0,-3.041811045E0,1.182295166E1
1.181933058E1,8.875398007E0,6.698778412E0,-3.202242855E0,1.157154619E1
1.182932058E1,7.570288364E0,6.503538128E0,-3.170319981E0,1.047168577E1
1.183931058E1,5.707966551E0,5.092192762E0,-2.438801728E0,8.028640180E0
1.184930058E1,4.202395644E0,3.429797192E0,-5.833714432E-1,5.455635634E0
1.185929058E1,1.742177319E0,1.142543600E0,2.710011962E0,3.418296728E0
1.186928058E1,-4.216410835E0,-2.795439783E0,1.216249624E1,1.317265800E1
1.187927058E1,-1.684070146E1,-6.743642929E0,3.854415561E1,4.259974034E1
1.188926158E1,-2.469905992E1,-1.218287963E1,1.940753206E1,3.369151848E1
1.189925158E1,-2.529188338E1,-1.580418425E1,-4.776424990E0,3.020373885E1
1.190924158E1,-2.215349329E1,-1.393147310E1,-7.095365229E0,2.711470847E1
1.191923158E1,-1.305053393E1,-7.796654547E0,-3.035548092E0,1.550221953E1
1.192922158E1,-2.751397970E0,-1.464948546E0,2.244088277E0,3.840858918E0
1.193921158E1,3.203001239E0,1.363667754E0,5.064305636E0,6.145404645E0
1.194920158E1,6.307317849E0,2.675074849E0,5.346970566E0,8.690706423E0
1.195919258E1,6.928499143E0,2.576997162E0,2.926447234E0,7.950415597E0
1.196918258E1,6.360083123E0,1.189169882E0,1.173360765E0,6.575831341E0
1.197917258E1,3.359147624E0,-2.063773010E0,2.612678626E0,4.729600554E0
1.198916258E1,-2.892623430E0,-6.052795569E0,6.805656744E0,9.556179583E0
1.199915258E1,-9.117200255E0,-9.024202629E0,5.488460906E0,1.395287700E1
1.200914258E1,-1.038071398E1,-9.366543072E0,-1.234898500E1,1.865445744E1
1.201913258E1,-4.730743618E0,-4.426886040E0,-1.627636328E1,1.751848330E1
1.202912258E1,3.435017002E-1,5.595212352E-1,-9.211344520E0,9.234713060E0
1.203911358E1,5.993182620E0,3.940974818E0,-1.275054809E0,7.285278663E0
1.204910358E1,1.001762527E1,5.901482491E0,3.986974571E0,1.229130904E1
1.205909358E1,1.083869480E1,6.551339116E0,3.380998377E0,1.310833701E1
1.206908358E1,9.445861722E0,5.328510906E0,-3.174447531E0,1.130019687E1
1.207907358E1,7.596424248E0,2.282281705E0,-7.642243615E0,1.101446134E1
1.208906358E1,6.745561400E0,-1.098283101E0,-7.907727671E0,1.045184105E1
1.209905358E1,6.094771560E0,-4.429245391E0,-8.226556460E0,1.115529857E1
1.210904458E1,5.236134839E0,-6.895972252E0,-7.106600654E0,1.120157642E1
1.211903458E1,4.636562515E0,-8.236335928E0,-4.843049920E0,1.062026713E1
1.212902458E1,4.315253338E0,-8.689162434E0,-2.868721182E0,1.011694205E1
1.213901458E1,3.961302078E0,-7.422840296E0,7.712366349E-1,8.448980895E0
1.214900458E1,3.522462696E0,-4.014103020E0,6.721362113E0,8.584723360E0
1.215899458E1,3.255676758E0,-2.395869132E0,4.628260054E0,6.144950055E0
1.216898458E1,2.740201136E0,-1.927846296E0,4.584468502E-1,3.381636752E0
1.217897458E1,1.939605339E0,-9.974537140E-1,-1.623096433E0,2.718717495E0
1.218896558E1,1.119884762E0,-2.937366325E-1,-2.505273460E0,2.759858366E0
1.219895558E1,5.614616337E-1,-3.456493825E-1,-2.736774083E0,2.815074607E0
1.220894558E1,4.240582055E-1,-4.631521046E-1,-2.909516037E0,2.976511179E0
1.221893558E1,3.147377846E-1,-1.302098912E-1,-2.939279534E0,2.958948912E0
1.222892558E1,-3.307565242E-2,5.208886814E-1,-2.759062500E0,2.807996598E0
1.223891558E1,-5.375295648E-1,1.223841532E0,-2.351467130E0,2.704833413E0
1.224890558E1,-1.142100673E0,1.984793499E0,-1.647242510E0,2.820852188E0
1.225889658E1,-1.729758125E0,2.491222016E0,-8.754415461E-1,3.156683102E0
1.226888658E1,-2.035865127E0,2.582234513E0,-2.578727353E-1,3.298360235E0
1.227887658E1,-2.018525501E0,2.568890582E0,1.683963025E-1,3.271391346E0
1.228886658E1,-1.685298821E0,2.605470178E0,5.946324496E-1,3.159476969E0
1.229885658E1,-1.220596912E0,2.638296447E0,1.073620130E0,3.098890954E0
1.230884658E1,-9.342286482E-1,2.570926582E0,1.635478936E0,3.187042204E0
1.231883658E1,-9.042774555E-1,2.332036833E0,2.201902224E0,3.332339555E0
1.232882658E1,-9.885691622E-1,1.943329723E0,2.592306926E0,3.387307869E0
1.233881758E1,-1.433506898E0,1.574282708E0,2.524355264E0,3.302374535E0
1.234880758E1,-2.087462274E0,1.373354251E0,1.994505140E0,3.197131745E0
1.235879758E1,-2.750325590E0,1.367554983E0,1.238395690E0,3.311815419E0
1.236878758E1,-3.219913141E0,1.455362620E0,5.676992972E-1,3.578855052E0
1.237877758E1,-3.424032130E0,1.658300180E0,1.925347781E-1,3.809333952E0
1.238876758E1,-3.336353131E0,1.967181686E0,4.351494965E-1,3.897487791E0
1.239875758E1,-3.215649059E0,2.092105109E0,1.572559533E0,4.146112172E0
1.240874758E1,-3.437701166E0,2.098459863E0,3.389198220E0,5.263837733E0
1.241873858E1,-3.989854325E0,1.837173523E0,4.983907006E0,6.643302878E0
1.242872858E1,-4.405564753E0,1.294726743E0,5.273444753E0,6.992462920E0
1.243871858E1,-4.632121555E0,1.041811277E0,4.007671083E0,6.213159289E0
1.244870858E1,-4.969642138E0,8.620725453E-1,1.987168930E0,5.421194741E0
1.245869858E1,-4.923868965E0,4.427599400E-1,2.872093856E-1,4.952071403E0
1.246868858E1,-4.827229108E0,4.869912028E-1,-7.526790342E-1,4.909768531E0
1.247867858E1,-5.405993530E0,7.809564614E-1,-1.412843715E0,5.641877915E0
1.248866958E1,-6.460337144E0,6.915934646E-1,-1.530576817E0,6.675097222E0
1.249865958E1,-7.548917960E0,2.231829590E-1,-6.228948203E-1,7.577860579E0
1.250864958E1,-8.329251108E0,-2.199079335E-2,6.876337302E-1,8.357616153E0
1.251863958E1,-8.666682229E0,4.863129258E-2,1.919166397E0,8.876764361E0
1.252862958E1,-8.851085284E0,-1.160058349E-1,3.274274704E0,9.438010537E0
1.253861958E1,-8.820588546E0,-4.973483759E-1,4.455091546E0,9.894340726E0
1.254860958E1,-7.939938812E0,-4.914292395E-1,4.945251063E0,9.366943958E0
1.255859958E1,-6.171822660E0,-6.468265969E-1,4.428788724E0,7.623906423E0
1.256859058E1,-4.913691301E0,-1.980378267E0,4.196208705E0,6.758285861E0
1.257858058E1,-4.155889229E0,-3.718209350E0,5.111714276E0,7.564794703E0
1.258857058E1,-3.252737363E0,-5.090705815E0,5.287742364E0,8.028437292E0
1.259856058E1,-2.123279539E0,-5.777798678E0,3.755007048E0,7.210502860E0
1.260855058E1,-5.943109989E-1,-5.903461189E0,2.394938840E0,6.398421026E0
1.261854058E1,1.190326169E0,-6.111996288E0,9.639099920E-1,6.300991786E0
1.262853058E1,2.199975421E0,-6.784910238E0,-1.599214650E0,7.309745979E0
1.263852158E1,2.525656269E0,-7.709507645E0,-4.571788230E0,9.312179945E0
1.264851158E1,2.478276573E0,-8.408320667E0,-6.934846296E0,1.117737914E1
1.265850096E1,2.333881921E0,-8.761817012E0,-7.048685153E0,1.148479014E1
1.266849096E1,2.149228605E0,-9.110827959E0,-3.407773654E0,9.961891938E0
1.267848096E1,1.134992505E0,-9.177516038E0,2.342495747E0,9.539512301E0
1.268847096E1,-2.962024033E-2,-8.582860054E0,4.922740452E0,9.894429626E0
1.269846096E1,-3.979211515E-1,-7.627201653E0,2.805667148E0,8.136603372E0
1.270845096E1,8.995590448E-2,-6.310759521E0,-5.844631183E-1,6.338404762E0
1.271844196E1,9.042806715E-1,-5.014908943E0,-3.272904702E0,6.056314096E0
1.272843196E1,1.774206612E0,-3.655212033E0,-4.694152327E0,6.208337151E0
1.273842196E1,2.718627250E0,-2.033500221E0,-5.298956739E0,6.293250336E0
1.274841196E1,3.663072445E0,-4.552349746E-1,-5.514341851E0,6.635759540E0
1.275840196E1,4.326870001E0,8.634577507E-1,-5.143427235E0,6.776592581E0
1.276839196E1,4.728372572E0,1.809141387E0,-4.421704237E0,6.721753350E0
1.277838196E1,5.064160041E0,2.513167201E0,-3.764922756E0,6.792375848E0
1.278837296E1,5.246063411E0,2.697857940E0,-3.443476169E0,6.830603700E0
1.279836296E1,4.940804256E0,2.402791650E0,-2.986364822E0,6.253265488E0
1.280835296E1,4.896332088E0,2.344020701E0,-2.747787899E0,6.084310914E0
1.281834296E1,5.106072298E0,2.381847509E0,-2.782418326E0,6.283870113E0
1.282833296E1,5.281377670E0,2.625873452E0,-2.959619366E0,6.599053589E0
1.283832296E1,5.578555389E0,3.012303071E0,-3.514730923E0,7.248971202E0
1.284831296E1,6.013450239E0,3.396619506E0,-4.252955056E0,8.110871381E0
1.285830396E1,6.619115946E0,3.776310208E0,-4.921621880E0,9.071690947E0
1.286829396E1,7.413302318E0,4.138056391E0,-5.265919386E0,9.990518952E0
1.287828396E1,8.191154492E0,4.434102674E0,-5.117278486E0,1.062745584E1
1.288827396E1,8.890147609E0,4.683671193E0,-4.483223086E0,1.100321724E1
1.289826396E1,9.391066294E0,4.875826487E0,-3.839998666E0,1.125661582E1
1.290825396E1,9.245908581E0,5.330513577E0,-3.691453076E0,1.129283075E1
1.291824396E1,8.420976965E0,5.950164655E0,-3.759155355E0,1.097490599E1
1.292823396E1,7.191257812E0,5.975580162E0,-3.608778417E0,1.002222674E1
1.293822496E1,5.322416938E0,4.532790225E0,-3.053679138E0,7.628844314E0
1.294821496E1,3.628588491E0,2.647245026E0,-1.361793429E0,4.693510627E0
1.295820496E1,7.763289750E-1,4.045957482E-1,1.940675672E0,2.128991889E0
1.296819496E1,-5.222720742E0,-2.724868568E0,1.264214802E1,1.394724443E1
1.297818496E1,-1.671100904E1,-5.726884632E0,3.872382417E1,4.256277234E1
1.298817496E1,-2.077530690E1,-1.013026837E1,1.468963361E1,2.738651219E1
1.299816496E1,-2.043736824E1,-1.296418927E1,-3.381784243E0,2.443752624E1
1.300815496E1,-1.842672362E1,-1.161593243E1,-4.327017351E0,2.220804153E1
1.301814596E1,-1.227917392E1,-6.465039475E0,-1.769248173E0,1.398946342E1
1.302813596E1,-3.648413476E0,-1.581858945E-1,2.193140318E0,4.259789680E0
1.303812596E1,2.194882203E0,3.210185713E0,4.249792004E0,5.760514931E0
1.304811596E1,5.383021574E0,4.825272045E0,5.058736748E0,8.823320750E0
1.305810596E1,6.218761768E0,4.679965228E0,2.196705658E0,8.087063015E0
1.306809596E1,5.680602751E0,2.742959853E0,-1.468849223E0,6.476927853E0
1.307808596E1,4.178241965E0,6.547215074E-1,-1.864812435E0,4.622108998E0
1.308807696E1,8.541934222E-1,-1.710193634E0,-1.862811371E0,2.669171196E0
1.309806696E1,-3.652298366E0,-4.651170030E0,-5.916832602E-1,5.943294968E0
1.310805696E1,-7.983834445E0,-9.044806463E0,-3.856803564E0,1.266590187E1
1.311804696E1,-8.781420972E0,-9.657639102E0,-7.742551430E0,1.517664159E1
1.312803696E1,-6.258151537E0,-6.368869150E0,-3.036939145E0,9.431328341E0
1.313802696E1,9.198184776E-1,-2.453909764E0,-3.860998356E-1,2.648926621E0
1.314801696E1,6.855079165E0,1.170750568E0,1.887504601E-1,6.956895427E0
1.315800796E1,9.976039875E0,3.751926150E0,3.211101971E0,1.113146429E1
1.316799796E1,9.893569576E0,4.311781846E0,-1.197047836E-1,1.079298434E1
1.317798796E1,7.676252190E0,2.635181050E0,-7.367486460E0,1.096124462E1
1.318797796E1,6.573452700E0,-2.340581954E-2,-8.637923284E0,1.085470160E1
1.319796796E1,6.266237066E0,-2.736341389E0,-8.497364990E0,1.090680993E1
1.320795796E1,5.478387322E0,-4.600168861E0,-8.372754393E0,1.101259721E1
1.321794796E1,4.782289163E0,-5.756836994E0,-7.037535682E0,1.027318696E1
1.322793796E1,4.721490399E0,-6.473707972E0,-4.820149884E0,9.350679730E0
1.323792896E1,4.733175475E0,-6.383380185E0,-2.833615669E0,8.436816368E0
1.324791896E1,4.575886543E0,-4.957056592E0,-1.313390251E-1,6.747473427E0
1.325790896E1,4.440622319E0,-1.991628894E0,6.890933706E0,8.436271663E0
1.326789896E1,3.333795267E0,-7.330104625E-1,7.486259197E0,8.227731886E0
1.327788896E1,2.019821829E0,-1.521815642E0,1.419540823E0,2.900120552E0
1.328787896E1,1.315972016E0,-1.835890059E0,-3.010246605E0,3.763490306E0
1.329786896E1,9.004840744E-1,-1.505948052E0,-4.220057158E0,4.570299063E0
1.330785996E1,4.991344079E-1,-1.449871500E0,-3.469530192E0,3.793270657E0
1.331784996E1,2.770855165E-1,-1.068157076E0,-2.704081716E0,2.920581081E0
1.332783996E1,7.051274300E-2,-1.017947620E-1,-1.957153126E0,1.961066694E0
1.333782996E1,-5.692059785E-2,1.210594080E0,-1.157942827E0,1.676189002E0
1.334781996E1,-2.721294165E-1,2.432837568E0,-5.573343766E-1,2.510652238E0
1.335780996E1,-5.977441916E-1,2.978554112E0,-4.553145333E-1,3.071871423E0
1.336779996E1,-7.976163483E-1,2.964900278E0,-5.550715041E-1,3.120084915E0
1.337779096E1,-8.703092256E-1,2.628262040E0,-5.346472529E-1,2.819760129E0
1.338778096E1,-1.028750351E0,2.270896007E0,-4.898026172E-1,2.540709067E0
1.339777096E1,-1.327828415E0,1.951647972E0,-3.362195778E-1,2.384345133E0
1.340776096E1,-1.698419388E0,1.728974306E0,-8.811395846E-2,2.425230842E0
1.341775096E1,-1.965676612E0,1.609325071E0,2.179211227E-1,2.549764959E0
1.342774096E1,-1.698203918E0,1.579825283E0,7.039544785E-1,2.423901067E0
1.343773096E1,-1.263675689E0,1.559382248E0,1.212375727E0,2.344867617E0
1.344772096E1,-1.207659947E0,1.412780272E0,1.443623750E0,2.353389084E0
1.345771196E1,-1.578879204E0,1.239640709E0,1.383247886E0,2.437815281E0
1.346770196E1,-2.186481801E0,1.193971031E0,1.018640954E0,2.691449216E0
1.347769196E1,-2.642301205E0,1.418877749E0,5.632013266E-1,3.051584090E0
1.348768196E1,-2.964830697E0,1.639235918E0,4.132600062E-1,3.412931187E0
1.349767196E1,-3.053835259E0,1.747113538E0,1.028124260E0,3.665426987E0
1.350766196E1,-2.920398874E0,1.758889831E0,2.500160655E0,4.227673866E0
1.351765196E1,-2.825860507E0,1.477408962E0,4.259185556E0,5.320609594E0
1.352764296E1,-3.092874779E0,9.335348761E-1,5.156505117E0,6.084973853E0
1.353763296E1,-3.722643586E0,3.890088254E-1,4.187876422E0,5.616735000E0
1.354762296E1,-4.271421440E0,3.499792457E-1,1.844551101E0,4.665822045E0
1.355761296E1,-4.214991131E0,5.166207987E-1,-3.439915507E-1,4.260443342E0
1.356760296E1,-3.953224442E0,6.401812363E-1,-1.598613264E0,4.312004160E0
1.357759296E1,-4.156459333E0,9.264480507E-1,-2.086352034E0,4.742080238E0
1.358758296E1,-4.928206429E0,1.097081498E0,-2.072100030E0,5.457509043E0
1.359757396E1,-6.099796658E0,8.545600426E-1,-1.737869675E0,6.399842431E0
1.360756396E1,-7.095698521E0,4.410630780E-1,-1.066691033E0,7.188970990E0
1.361755396E1,-7.753699731E0,2.704009795E-1,-2.467956237E-1,7.762337553E0
1.362754396E1,-8.024090770E0,5.063811547E-1,7.596047688E-1,8.075856238E0
1.363753396E1,-7.766908591E0,8.334790760E-1,2.126072170E0,8.095661758E0
1.364752396E1,-7.359106230E0,6.472394103E-1,3.682516776E0,8.254471102E0
1.365751383E1,-7.054575638E0,2.083450645E-1,4.836944257E0,8.556078239E0
1.366750383E1,-6.411032837E0,-2.601782924E-1,5.164771911E0,8.236741083E0
1.367749483E1,-5.340849701E0,-9.775380975E-1,4.852779686E0,7.282151258E0
1.368748483E1,-4.811393094E0,-2.293664480E0,4.919792286E0,7.253602994E0
1.369747483E1,-4.592468370E0,-3.432092809E0,5.111899048E0,7.681245905E0
1.370746483E1,-3.680115032E0,-3.457842777E0,4.061940261E0,6.480685304E0
1.371745483E1,-2.095423989E0,-3.136368123E0,2.731062523E0,4.656856150E0
1.372744483E1,-2.682225993E-1,-3.241690511E0,1.710281342E0,3.674991564E0
1.373743483E1,1.157081824E0,-3.932580555E0,-4.612160915E-1,4.125136174E0
1.374742583E1,2.441132136E0,-5.057252725E0,-3.088770034E0,6.409011745E0
1.375741583E1,3.476655024E0,-6.596629894E0,-4.893275748E0,8.918901483E0
1.376740583E1,3.862851631E0,-8.172009539E0,-5.407735416E0,1.053313652E1
1.377739583E1,3.718365763E0,-9.228946978E0,-5.065455199E0,1.116505901E1
1.378738583E1,3.542549929E0,-9.449455420E0,-3.795163386E0,1.078170362E1
1.379737583E1,3.233393604E0,-9.058646822E0,-1.716665332E0,9.770407172E0
1.380736583E1,2.149275091E0,-8.133883939E0,7.414959419E-1,8.445665609E0
1.381735683E1,7.806851506E-1,-6.789710217E0,2.061717129E0,7.138649148E0
1.382734683E1,-1.174126750E-1,-5.130995470E0,1.636258370E0,5.386858240E0
1.383733683E1,-1.796972162E-1,-3.588088337E0,-1.215870023E-2,3.592605856E0
1.384732683E1,3.079336721E-1,-2.394899079E0,-1.968517190E0,3.115353057E0
1.385731683E1,6.591390789E-1,-1.209282550E0,-3.423117333E0,3.689791442E0
1.386730683E1,7.870931143E-1,-1.949537712E-1,-4.439317805E0,4.512766903E0
1.387729683E1,7.750051653E-1,7.268767333E-1,-5.254322019E0,5.360679310E0
1.388728683E1,7.411223048E-1,1.583152934E0,-5.347347711E0,5.625812211E0
1.389727783E1,1.080113463E0,2.417466992E0,-5.027106235E0,5.681776909E0
1.390726783E1,1.847118468E0,2.886884388E0,-4.569425370E0,5.711882029E0
1.391725783E1,2.889290518E0,2.602683395E0,-3.920431210E0,5.521932762E0
1.392724783E1,4.267380429E0,1.826860204E0,-3.459158401E0,5.789104488E0
1.393723783E1,5.527050775E0,1.161630666E0,-3.287632084E0,6.534998148E0
1.394722783E1,6.391695510E0,7.479249555E-1,-3.320375907E0,7.241412804E0
1.395721783E1,6.896381557E0,8.758316284E-1,-3.398114639E0,7.737851299E0
1.396720883E1,7.101500128E0,1.431225314E0,-3.460547699E0,8.028393385E0
1.397719883E1,7.103699266E0,2.116278668E0,-3.718951069E0,8.292874997E0
1.398718883E1,7.103033853E0,2.679129308E0,-3.994100865E0,8.578092182E0
1.399717883E1,7.263716508E0,3.153416850E0,-4.098240653E0,8.916344082E0
1.400716883E1,7.516796865E0,3.362129120E0,-3.818276552E0,9.076639420E0
1.401715883E1,7.642421955E0,3.239561539E0,-3.229305523E0,8.906727034E0
1.402714883E1,7.683868189E0,3.211874973E0,-2.813916399E0,8.790682379E0
1.403713983E1,7.822545433E0,3.514747880E0,-2.606952447E0,8.963362693E0
1.404712983E1,7.852635205E0,3.868383974E0,-2.618055433E0,9.136875203E0
1.405711983E1,7.503542397E0,4.018428206E0,-2.668866275E0,8.920412599E0
1.406710983E1,6.896078671E0,3.537863678E0,-2.242559961E0,8.068547306E0
1.407709983E1,6.065940694E0,2.550637329E0,-1.135118951E0,6.677565598E0
1.408708983E1,4.756077849E0,1.426085612E0,7.482249177E-1,5.021338189E0
1.409707983E1,1.533504810E0,-5.659046406E-1,4.257037874E0,4.560071987E0
1.410707083E1,-4.448500273E0,-3.989059396E0,1.432511234E1,1.552129482E1
1.411706083E1,-1.383427835E1,-7.210104557E0,2.228142335E1,2.719990242E1
1.412705083E1,-1.909617251E1,-9.056112054E0,1.145914519E1,2.404140134E1
1.413704083E1,-1.962764114E1,-9.667233213E0,5.188915649E-1,2.188535911E1
1.414703083E1,-1.839606667E1,-6.850684982E0,-1.861686513E0,1.971834248E1
1.415702083E1,-1.304894817E1,-1.890103104E0,-1.151424497E0,1.323530568E1
1.416701083E1,-5.105689890E0,2.237311939E0,4.605822533E-1,5.593368393E0
1.417700083E1,4.345446020E-1,3.595541782E0,2.073520757E0,4.173276656E0
1.418699183E1,3.396532382E0,2.928380324E0,4.046271477E0,6.040211620E0
1.419698183E1,3.882431325E0,9.912954265E-1,4.138796064E0,5.760692014E0
1.420697183E1,2.737092172E0,-9.406287181E-1,1.328352326E0,3.184489888E0
1.421696183E1,1.875828881E0,-1.446528062E0,-4.094618011E-1,2.403921046E0
1.422695183E1,7.749045932E-1,-1.290067096E0,-9.138163108E-1,1.760627869E0
1.423694183E1,-1.636706412E0,-1.658826429E0,-1.443446141E0,2.741176712E0
1.424693183E1,-4.993599350E0,-2.848231954E0,-9.739050762E-1,5.830690425E0
1.425692283E1,-8.237393104E0,-4.186078988E0,7.410977465E-1,9.269688685E0
1.426691283E1,-9.985049264E0,-5.016399983E0,-1.772859998E0,1.131408459E1
1.427690283E1,-7.255916907E0,-4.406448852E0,-6.038563446E0,1.041774304E1
1.428689283E1,-2.194161242E0,-2.151439730E0,-6.056010953E0,6.791045952E0
1.429688283E1,3.678801455E0,-2.219135284E-1,-2.129273520E0,4.256363646E0
1.430687283E1,9.298947505E0,1.434057121E0,2.772773051E0,9.808935463E0
1.431686283E1,1.237589038E1,2.951630023E0,6.596496577E0,1.433138338E1
1.432685383E1,1.399992529E1,3.484822415E0,7.254498957E0,1.614836371E1
1.433684383E1,1.258530723E1,2.425079482E0,-1.537905425E-1,1.281774630E1
1.434683383E1,9.761164640E0,1.784096593E-1,-7.481975527E0,1.230008630E1
1.435682383E1,7.726451706E0,-1.979328691E0,-9.418890270E0,1.234225636E1
1.436681383E1,6.574996365E0,-4.227607668E0,-8.609480672E0,1.162868872E1
1.437680383E1,5.447425146E0,-6.292544859E0,-6.388924515E0,1.049232662E1
1.438679383E1,4.801735833E0,-7.531467530E0,-3.962866793E0,9.771590627E0
1.439678483E1,4.281030754E0,-7.541352248E0,-2.182895996E0,8.942273367E0
1.440677483E1,3.553004458E0,-5.759084079E0,-1.279967201E0,6.886886535E0
1.441676483E1,2.744154439E0,-3.263400053E0,-5.742760992E-1,4.302319901E0
1.442675483E1,1.248050174E0,-1.205552611E0,1.533642220E0,2.315824862E0
1.443674483E1,-4.733677751E-1,-3.899332702E-2,2.686889732E0,2.728547959E0
1.444673483E1,-1.346330467E0,2.671475887E-2,1.198289784E0,1.802558685E0
1.445672483E1,-1.338253708E0,-1.902988029E-1,-8.273535329E-1,1.584818756E0
1.446671583E1,-1.226697897E0,-5.546200991E-1,-2.108479067E0,2.501614511E0
1.447670583E1,-1.132250161E0,-6.885242611E-1,-2.477725473E0,2.809836224E0
1.448669583E1,-1.164965917E0,-3.012526435E-1,-2.393845995E0,2.679253141E0
1.449668583E1,-1.140466376E0,4.136466533E-1,-2.010936985E0,2.348538837E0
1.450667583E1,-8.859423414E-1,1.068830675E0,-1.537663350E0,2.071642204E0
1.451666583E1,-2.949233249E-1,1.341206260E0,-1.129473903E0,1.778067855E0
1.452665583E1,3.162434426E-1,1.374401488E0,-8.516188931E-1,1.647496314E0
1.453664683E1,6.905742949E-1,1.297689527E0,-7.431308234E-1,1.647159490E0
1.454663683E1,8.604476041E-1,1.214153280E0,-8.276803923E-1,1.702819162E0
1.455662683E1,8.606469941E-1,1.226967453E0,-9.758067369E-1,1.788396256E0
1.456661683E1,7.343617541E-1,1.152188582E0,-1.044180568E0,1.719633325E0
1.457660683E1,4.969419944E-1,9.903774136E-1,-8.703277174E-1,1.408995778E0
1.458659683E1,2.573517483E-1,8.109228569E-1,-4.079344352E-1,9.435233467E-1
1.459658683E1,-2.457877100E-2,7.081024933E-1,1.609153748E-1,7.265720988E-1
1.460657683E1,-3.353071198E-1,7.752261901E-1,6.328593528E-1,1.055422887E0
1.461656783E1,-6.811374736E-1,9.257066238E-1,8.043546796E-1,1.402806994E0
1.462655783E1,-1.026873980E0,1.110966296E0,7.235683787E-1,1.676981658E0
1.463654783E1,-1.382573849E0,1.224882336E0,4.934313262E-1,1.911889552E0
1.464653783E1,-1.741372157E0,1.253785123E0,2.734427742E-1,2.163128539E0
1.465652792E1,-2.043597485E0,1.224085361E0,1.981456201E-1,2.390384350E0
1.466651792E1,-2.237321879E0,1.208576206E0,3.387597544E-1,2.565350621E0
1.467650792E1,-2.286840779E0,1.184766929E0,6.317260163E-1,2.651865604E0
1.468649892E1,-2.345080070E0,1.089293591E0,1.160282736E0,2.834116634E0
1.469648892E1,-2.516247222E0,9.687193269E-1,1.900270097E0,3.298627541E0
1.470647892E1,-2.770690858E0,9.414999533E-1,2.636870896E0,3.939065639E0
1.471646892E1,-3.025582098E0,1.048830274E0,3.086942779E0,4.447854280E0
1.472645892E1,-3.253248702E0,1.140146241E0,2.951010218E0,4.537843306E0
1.473644892E1,-3.428431283E0,1.175496753E0,2.098397152E0,4.187983319E0
1.474643892E1,-3.468571249E0,1.058008649E0,7.660027921E-1,3.706363323E0
1.475642992E1,-3.468733801E0,8.941556329E-1,-4.607265334E-1,3.611633622E0
1.476641992E1,-3.490870775E0,9.148366499E-1,-1.280989440E0,3.829365327E0
1.477640992E1,-3.670134712E0,1.055849272E0,-1.812600600E0,4.227319177E0
1.478639992E1,-4.156480675E0,9.666014653E-1,-2.021872594E0,4.722141334E0
1.479638992E1,-4.684277257E0,7.674891543E-1,-1.783549147E0,5.070753453E0
1.480637992E1,-5.067322215E0,7.295354623E-1,-1.144137697E0,5.245858127E0
1.481636992E1,-5.221938384E0,8.762204683E-1,-3.030084161E-1,5.303604142E0
1.482636092E1,-5.175316780E0,9.904791552E-1,6.099360748E-1,5.304429728E0
1.483635092E1,-5.209152278E0,8.718859273E-1,1.510215643E0,5.493287159E0
1.484634092E1,-5.405153285E0,4.498391640E-1,2.287274058E0,5.886396175E0
1.485633092E1,-5.555879302E0,-2.606513321E-2,2.853219337E0,6.245745335E0
1.486632092E1,-5.364111094E0,-3.321007991E-1,3.029686843E0,6.169520333E0
1.487631092E1,-4.809693308E0,-6.068965459E-1,2.912970572E0,5.655693652E0
1.488630092E1,-4.368067144E0,-1.567516894E0,2.771974322E0,5.405641629E0
1.489629192E1,-4.120895398E0,-3.090759256E0,3.118785546E0,6.021743513E0
1.490628192E1,-3.534317341E0,-3.868007998E0,4.110307260E0,6.659392669E0
1.491627192E1,-2.590192573E0,-3.549118398E0,4.995107932E0,6.652551557E0
1.492626192E1,-1.287091448E0,-2.583921434E0,4.556344564E0,5.393841874E0
1.493625192E1,1.862115991E-1,-1.938752523E0,3.646190364E0,4.133780386E0
1.494624192E1,1.645559097E0,-2.186528871E0,2.522189455E0,3.721587416E0
1.495623192E1,2.763149996E0,-3.037709223E0,2.735701339E-1,4.115521333E0
1.496622192E1,3.554862118E0,-4.005593567E0,-2.437336416E0,5.884083048E0
1.497621292E1,4.165290967E0,-5.121412468E0,-4.057626185E0,7.748731817E0
1.498620292E1,4.369505266E0,-6.290535171E0,-4.779953200E0,9.028364282E0
1.499619292E1,4.081999427E0,-7.061658370E0,-4.605022634E0,9.366748193E0
1.500618292E1,3.709868882E0,-7.206537756E0,-3.637292072E0,8.884098556E0
1.501617292E1,3.089812885E0,-6.959506928E0,-2.435547314E0,7.994596366E0
1.502616292E1,1.907903198E0,-6.258052134E0,-1.083671055E0,6.631564980E0
1.503615392E1,4.459148052E-1,-4.931128868E0,4.118416178E-1,4.968348362E0
1.504614392E1,-7.111073774E-1,-3.436462433E0,1.246237391E0,3.723983807E0
1.505613392E1,-1.154570153E0,-2.360092358E0,7.860262898E-1,2.742426937E0
1.506612392E1,-1.140589460E0,-1.711316884E0,-5.099128729E-1,2.118858403E0
1.507611392E1,-8.540852487E-1,-9.889629722E-1,-2.003982891E0,2.392374720E0
1.508610392E1,-5.591926217E-1,-1.262484026E-1,-3.375436213E0,3.423770535E0
1.509609392E1,-4.046027648E-1,8.584443480E-1,-4.321574470E0,4.424549242E0
1.510608492E1,-1.532362264E-1,1.819317881E0,-4.662135313E0,5.006885716E0
1.511607492E1,4.503198051E-1,2.467154292E0,-4.630842769E0,5.266340568E0
1.512606492E1,1.540519130E0,2.573644953E0,-3.790380071E0,4.833614446E0
1.513605492E1,3.134837907E0,1.772733698E0,-2.759637866E0,4.537113027E0
1.514604492E1,4.307922099E0,9.244582433E-1,-2.205579100E0,4.927209658E0
1.515603492E1,4.988684766E0,5.854296631E-1,-1.843003490E0,5.350361244E0
1.516602492E1,5.153759850E0,5.366808414E-1,-1.766894084E0,5.474594197E0
1.517601492E1,4.901189370E0,7.102209395E-1,-1.953441314E0,5.323720878E0
1.518600592E1,4.914049736E0,1.302804671E0,-2.277068912E0,5.570478224E0
1.519599592E1,5.167851639E0,1.964895424E0,-2.781217892E0,6.188915702E0
1.520598592E1,5.498487711E0,2.363556249E0,-3.341702164E0,6.854687345E0
1.521597592E1,5.847388145E0,2.654117258E0,-3.675803880E0,7.399177029E0
1.522596592E1,6.246902663E0,2.728213760E0,-3.623424815E0,7.719854311E0
1.523595592E1,6.604313135E0,2.673227128E0,-3.130069210E0,7.782058116E0
1.524594592E1,6.741004080E0,2.500095751E0,-2.505467003E0,7.613736249E0
1.525593692E1,6.562866316E0,2.274473918E0,-2.168749535E0,7.276532171E0
1.526592692E1,6.186868131E0,2.187222351E0,-2.187476120E0,6.917104210E0
1.527591692E1,5.794091359E0,2.209934106E0,-2.282934839E0,6.608108270E0
1.528590692E1,5.213968629E0,2.186272178E0,-2.185466432E0,6.061478238E0
1.529589692E1,4.388271028E0,1.857711868E0,-1.785309890E0,5.088747135E0
1.530588692E1,3.200454192E0,1.132427917E0,-7.855307382E-1,3.484588722E0
1.531587692E1,1.368642565E0,1.852544099E-1,1.216481057E0,1.840469459E0
1.532586792E1,-1.541333063E0,-7.246091831E-1,4.319859189E0,4.643484628E0
1.533585792E1,-5.868872570E0,-2.026930289E0,8.306225358E0,1.037041423E1
1.534584792E1,-1.142574473E1,-3.779970565E0,1.134605887E1,1.653991753E1
1.535583792E1,-1.579411417E1,-5.286081170E0,1.091454021E1,1.991290749E1
1.536582792E1,-1.617528598E1,-5.292738225E0,5.520172110E0,1.789204445E1
1.537581792E1,-1.400607539E1,-3.758054616E0,1.650908130E0,1.459515741E1
1.538580792E1,-1.008678848E1,-1.454785500E0,4.788629884E-1,1.020240229E1
1.539579892E1,-4.537821169E0,9.513595283E-1,4.902159423E-1,4.662318907E0
1.540578892E1,-1.862045825E-2,2.105416296E0,5.149204284E-1,2.167548741E0
1.541577892E1,2.538887933E0,1.822226871E0,1.964243460E-1,3.131300885E0
1.542576892E1,3.256076415E0,1.526940141E0,-7.250605881E-2,3.597059486E0
1.543575892E1,2.535689507E0,1.803765457E0,-4.619171727E-1,3.145895512E0
1.544574892E1,1.081750098E0,1.606446487E0,-1.565632337E0,2.490393183E0
1.545573992E1,-1.723653924E-1,8.827956623E-1,-2.971445652E0,3.104597763E0
1.546572992E1,-1.010344486E0,3.507370448E-1,-3.943828259E0,4.086268933E0
1.547571992E1,-1.861920109E0,-5.437390155E-1,-3.608610309E0,4.096885033E0
1.548570992E1,-2.980181977E0,-2.688923979E0,-1.228668262E0,4.197787807E0
1.549569992E1,-4.817080096E0,-6.036591765E0,4.153890651E0,8.769236473E0
1.550568992E1,-7.321954191E0,-9.108500767E0,8.992876171E0,1.474610529E1
1.551567992E1,-7.987078480E0,-8.219697676E0,5.586256757E0,1.275002420E1
1.552566992E1,-5.190802546E0,-4.429644756E0,-2.343479687E0,7.215128604E0
1.553566092E1,-7.937419832E-2,-8.597377521E-1,-6.511230140E0,6.568224052E0
1.554565092E1,4.351850476E0,1.045561681E0,-6.541071405E0,7.925743934E0
1.555564092E1,8.321336902E0,2.558059784E0,-2.918089809E0,9.181697328E0
1.556563092E1,1.181941671E1,3.688837032E0,2.289968893E0,1.259166738E1
1.557562092E1,1.324805755E1,3.778102380E0,2.962548528E0,1.409119513E1
1.558561092E1,1.162206850E1,1.892315106E0,-1.113797079E0,1.182767419E1
1.559560092E1,9.267295942E0,-1.517890406E-1,-3.955579993E0,1.007732242E1
1.560559192E1,6.699761329E0,-1.715306439E0,-5.414394810E0,8.783208366E0
1.561558192E1,4.299995028E0,-2.919246388E0,-5.494230938E0,7.562970998E0
1.562557192E1,2.628355011E0,-4.383509055E0,-5.002595876E0,7.151878579E0
1.563556192E1,1.560751081E0,-6.073951380E0,-4.483681800E0,7.709230298E0
1.564555192E1,7.082299626E-1,-7.042065520E0,-3.629163272E0,7.953810566E0
1.565554192E1,-6.184076670E-1,-6.292184671E0,-1.373249732E0,6.469917372E0
1.566553154E1,-1.122151143E0,-3.077507712E0,2.543054952E-1,3.285566646E0
1.567552254E1,-5.363928661E-1,-9.998387933E-2,8.079799533E-2,5.515817246E-1
1.568551254E1,-1.378767604E-1,1.396581146E0,-4.021795325E-1,1.459862074E0
1.569550254E1,1.873053208E-1,1.925043726E0,-9.610127697E-1,2.159727338E0
1.570549254E1,3.129491213E-1,1.835329896E0,-1.459163895E0,2.365487741E0
1.571548254E1,4.690794271E-1,1.271268298E0,-1.887489545E0,2.323526496E0
1.572547254E1,6.141190267E-1,4.211433685E-1,-2.082512752E0,2.211642665E0
1.573546354E1,6.462567857E-1,-3.313663888E-1,-2.242296106E0,2.356977586E0
1.574545354E1,6.478171152E-1,-7.537359184E-1,-2.292178118E0,2.498372545E0
1.575544354E1,6.086325842E-1,-8.078279257E-1,-2.071757383E0,2.305471369E0
1.576543354E1,4.534626836E-1,-6.223624313E-1,-1.651480572E0,1.822183164E0
1.577542354E1,2.952121773E-1,-2.717984641E-1,-1.061598766E0,1.134908179E0
1.578541354E1,2.100702855E-1,1.825722921E-1,-6.094541180E-1,6.699973796E-1
1.579540354E1,9.342534989E-2,5.097321939E-1,-3.857653749E-1,6.460418949E-1
1.580539354E1,-9.337506384E-2,7.665606165E-1,-3.169050550E-1,8.347232447E-1
1.581538454E1,-4.126763079E-1,9.374928564E-1,-3.040634000E-1,1.068479828E0
1.582537454E1,-7.644743299E-1,1.067409802E0,-3.669443572E-1,1.363243503E0
1.583536454E1,-1.117961905E0,1.146355399E0,-5.591399968E-1,1.696056325E0
1.584535454E1,-1.479538811E0,1.230496248E0,-7.821346754E-1,2.077231513E0
1.585534454E1,-1.651189966E0,1.269258025E0,-9.349691981E-1,2.282895451E0
1.586533454E1,-1.589655915E0,1.283827533E0,-8.964512497E-1,2.231332316E0
1.587532454E1,-1.436597736E0,1.236583200E0,-7.481746316E-1,2.037821470E0
1.588531554E1,-1.340788769E0,1.110846428E0,-6.157164860E-1,1.846835429E0
1.589530554E1,-1.377272471E0,1.021471152E0,-5.308581841E-1,1.795018993E0
1.590529554E1,-1.453645585E0,1.025765932E0,-5.328146625E-1,1.857194847E0
1.591528554E1,-1.538528446E0,1.004470373E0,-6.427107418E-1,1.946563024E0
1.592527554E1,-1.528601920E0,1.014518228E0,-9.068750811E-1,2.046532061E0
1.593526554E1,-1.310595793E0,1.083489645E0,-1.218954941E0,2.092238584E0
1.594525554E1,-1.093460902E0,1.035810279E0,-1.397110319E0,2.054379936E0
1.595524654E1,-8.327081206E-1,9.548719507E-1,-1.323404996E0,1.832098262E0
1.596523654E1,-6.415448070E-1,7.582727730E-1,-9.014558816E-1,1.341335172E0
1.597522654E1,-4.857969090E-1,4.658535182E-1,-2.547724684E-1,7.196715556E-1
1.598521654E1,-4.581653067E-1,8.386252105E-2,4.175286929E-1,6.255226456E-1
1.599520654E1,-6.076520061E-1,-2.442767894E-1,1.004260312E0,1.198937398E0
1.600519654E1,-8.185375397E-1,-4.270186508E-1,1.456731015E0,1.724648916E0
1.601518754E1,-9.788024117E-1,-4.598051584E-1,1.820321409E0,2.117320235E0
1.602517754E1,-1.067061162E0,-4.194102538E-1,2.050873176E0,2.349596831E0
1.603516754E1,-1.055888156E0,-4.082525969E-1,2.078946096E0,2.367189653E0
1.604515754E1,-1.004101998E0,-3.958360344E-1,1.954187418E0,2.232432632E0
1.605514754E1,-9.409298497E-1,-4.187120962E-1,1.636739888E0,1.933800988E0
1.606513754E1,-9.255972809E-1,-3.756210405E-1,1.161671011E0,1.532090412E0
1.607512754E1,-1.022517950E0,-2.377606523E-1,6.082802895E-1,1.213292214E0
1.608511754E1,-1.279210279E0,1.934492826E-2,-1.578748226E-3,1.279357517E0
1.609510854E1,-1.589285493E0,3.399857694E-1,-4.953562295E-1,1.699057532E0
1.610509854E1,-1.943116446E0,5.626418942E-1,-7.934332502E-1,2.172971180E0
1.611508854E1,-2.248953599E0,7.810067475E-1,-9.466186059E-1,2.562001291E0
1.612507854E1,-2.477267051E0,9.105991727E-1,-1.039368310E0,2.836605256E0
1.613506854E1,-2.497946022E0,9.678112543E-1,-1.090751156E0,2.892426496E0
1.614505854E1,-2.387791203E0,9.078071272E-1,-1.116919785E0,2.788040605E0
1.615504954E1,-2.224547029E0,7.381782317E-1,-1.084230487E0,2.582454711E0
1.616503954E1,-2.086250438E0,5.095778275E-1,-9.324778457E-1,2.341287122E0
1.617502954E1,-2.060003603E0,2.513817412E-1,-6.407413995E-1,2.171947781E0
1.618501954E1,-2.105923834E0,1.328364605E-1,-2.426652968E-1,2.124016753E0
1.619500954E1,-2.300961659E0,1.314623648E-1,-1.266653091E-3,2.304714410E0
1.620499954E1,-2.803700144E0,1.426264536E-1,1.514896631E-2,2.807366434E0
1.621498954E1,-3.472856673E0,6.966606617E-2,-1.180751646E-1,3.475561620E0
1.622497954E1,-4.114686239E0,4.854358435E-3,-3.153765929E-1,4.126757663E0
1.623497054E1,-4.657428305E0,-9.283098042E-2,-5.388831952E-1,4.689419058E0
1.624496054E1,-4.987358032E0,-1.717783320E-1,-7.415111446E-1,5.045105224E0
1.625495054E1,-5.149789006E0,-1.897479951E-1,-8.602729185E-1,5.224595735E0
1.626494054E1,-5.275132844E0,-1.413967842E-1,-6.977657855E-1,5.322959389E0
1.627493054E1,-5.403148275E0,1.585472524E-2,-1.575718638E-1,5.405468670E0
1.628492054E1,-5.535247402E0,2.231320882E-1,6.395123148E-1,5.576533666E0
1.629491154E1,-5.570583880E0,3.746240902E-1,1.425620173E0,5.762303433E0
1.630490154E1,-5.487256379E0,5.055876875E-1,1.994431611E0,5.860320719E0
1.631489154E1,-5.182201291E0,3.832890791E-1,2.171621979E0,5.631879150E0
1.632488154E1,-4.699758930E0,-7.333577871E-3,2.223203777E0,5.199079035E0
1.633487154E1,-4.155103948E0,-4.396901518E-1,2.377815853E0,4.807517497E0
1.634486154E1,-3.413475274E0,-7.030563462E-1,2.850924597E0,4.502651744E0
1.635485154E1,-2.455878521E0,-8.422475606E-1,3.082433406E0,4.030150862E0
1.636484254E1,-1.462954207E0,-1.044719682E0,2.099645678E0,2.764088674E0
1.637483254E1,-5.125854890E-1,-1.056938024E0,1.804327959E-1,1.188451877E0
1.638482254E1,2.857695088E-1,-8.990047288E-1,-1.225232584E0,1.546308055E0
1.639481254E1,7.631347328E-1,-5.024798924E-1,-1.471069996E0,1.731735429E0
1.640480254E1,6.212476596E-1,-3.594148976E-1,-1.672609925E0,1.820096614E0
1.641479254E1,-2.188320458E-3,-8.378715044E-1,-2.648432595E0,2.777810047E0
1.642478254E1,-8.003040209E-1,-1.882095342E0,-3.913504599E0,4.415686543E0
1.643477354E1,-1.436645391E0,-3.016921202E0,-4.685310168E0,5.754814931E0
1.644476354E1,-1.860369428E0,-3.706519597E0,-4.733870124E0,6.293551325E0
1.645475354E1,-2.165987018E0,-3.937012745E0,-4.000660272E0,6.016381946E0
1.646474354E1,-2.555919996E0,-3.936094732E0,-2.726272484E0,5.427534470E0
1.647473354E1,-3.003463250E0,-3.791193126E0,-1.178842530E0,4.978313623E0
1.648472354E1,-3.065748084E0,-3.454301119E0,8.807660937E-3,4.618558770E0
1.649471354E1,-2.685133814E0,-2.892795923E0,5.007669505E-1,3.978564991E0
