"Time (s)","Linear Acceleration x (m/s^2)","Linear Acceleration y (m/s^2)","Linear Acceleration z (m/s^2)","Absolute acceleration (m/s^2)"
4.403250001E-3,-2.325768033E-1,1.481012017E-1,9.491200447E-3,2.758913160E-1
1.439325000E-2,-2.648734604E-1,-1.674233258E-1,-3.109145826E-1,4.414254158E-1
2.438325000E-2,-3.817766967E-1,-2.106307411E-1,-5.731563574E-1,7.201575976E-1
3.437325000E-2,-3.523506571E-1,-1.072660017E-1,-8.929990536E-1,9.659732348E-1
4.436325000E-2,-2.919648530E-1,3.677430868E-2,-1.022971548E0,1.064456017E0
5.435325000E-2,-6.925851524E-2,8.190487325E-2,-9.759803993E-1,9.818568582E-1
6.434225000E-2,2.741167389E-1,-1.039295805E-1,-9.807540661E-1,1.023630735E0
7.433225000E-2,2.882728480E-1,-2.356655949E-1,-1.119677478E0,1.179964899E0
8.432225000E-2,3.952390337E-1,-2.005016094E-1,-9.458116901E-1,1.044497268E0
9.431225000E-2,5.342745660E-1,-9.621271759E-2,-5.612309611E-1,7.808241739E-1
1.043022500E-1,5.269070743E-1,-1.372195333E-1,-2.051519001E-1,5.818484058E-1
1.142922500E-1,5.135037942E-1,-2.613392571E-1,1.407799029E-1,5.931301164E-1
1.242822500E-1,5.019356628E-1,-3.363789144E-1,-4.558489323E-2,6.059440289E-1
1.342712500E-1,4.802381073E-1,-3.665689659E-1,-1.117718661E-1,6.144057263E-1
1.442612500E-1,3.240671633E-1,-3.565322202E-1,-2.466636229E-1,5.412741387E-1
1.542512500E-1,-4.325448543E-2,-5.018022001E-1,-7.049420732E-1,8.663831284E-1
1.642412500E-1,-1.048619190E-1,-5.299255532E-1,-1.076934332E0,1.204825576E0
1.742312500E-1,2.542019995E-1,-2.803979641E-1,-8.788417751E-1,9.568722696E-1
1.842212500E-1,2.427429186E-1,-2.315786836E-1,-1.182650236E0,1.229314603E0
1.942112500E-1,-3.342438036E-1,-5.064010352E-2,-2.096617405E0,2.123696750E0
2.042012500E-1,2.822734585E-1,-1.370847550E-1,3.142246914E-1,4.440807270E-1
2.141902500E-1,4.712763722E-1,-3.360263273E-1,-3.543827838E-1,6.786768517E-1
2.241802500E-1,3.576179020E-1,-8.249573439E-2,-5.931620210E-1,6.975222529E-1
2.341702500E-1,8.236342652E-1,-2.964626044E-2,6.292270625E-1,1.036908385E0
2.441602500E-1,9.469385947E-1,-3.615754437E-1,4.043443179E-1,1.091294567E0
2.541502500E-1,7.884461600E-1,-7.283709893E-1,2.800143868E-1,1.109314970E0
2.641402500E-1,4.783128385E-1,-1.132572343E0,1.868998164E-1,1.243557327E0
2.741302500E-1,-2.769705456E-1,-1.341877812E0,-4.012838852E-1,1.427717585E0
2.841202500E-1,-1.173994969E0,-1.373104868E0,-1.163039845E0,2.148567626E0
2.941102500E-1,-1.394753014E0,-1.320695689E0,-1.495090942E0,2.434105585E0
3.040992500E-1,-1.291852544E0,-1.538812328E0,-2.022809172E0,2.851067049E0
3.140892500E-1,-1.399159914E0,-1.901708950E0,-2.830193294E0,3.685666761E0
3.240792500E-1,-1.191521486E0,-1.973351960E0,-3.024871076E0,3.803115359E0
3.340692500E-1,-5.164108837E-1,-1.688871177E0,-2.884243786E0,3.381985847E0
3.440593750E-1,3.701737744E-1,-9.713157830E-1,-2.244437356E0,2.473455481E0
3.540493750E-1,9.418279821E-1,-2.490589347E-1,-1.499762868E0,1.788395639E0
3.640393750E-1,1.185512156E0,-1.522623727E-1,-1.174590434E0,1.675794018E0
3.740293750E-1,3.010776948E0,-6.817904614E-1,3.970048928E0,5.029006319E0
3.840183750E-1,3.242669919E0,-1.649712667E0,5.600567232E0,6.678533777E0
3.940083750E-1,1.414196760E0,-1.755596094E0,2.787532593E0,3.585025534E0
4.039983750E-1,1.667457797E0,-1.567107443E0,1.685974467E0,2.842314399E0
4.139883750E-1,1.061161175E0,-1.578835350E0,1.913255739E-1,1.911907314E0
4.239783750E-1,1.917401415E-1,-1.219000914E0,-4.021790940E-1,1.297873466E0
4.339683750E-1,-4.203846923E-1,-4.991493183E-1,-1.138148832E-1,6.624403061E-1
4.439583750E-1,1.483730972E-2,-1.937458827E-1,-6.583894658E-1,6.864650767E-1
4.539483750E-1,8.469586623E-1,-4.764969125E-1,-1.543094244E0,1.823603062E0
4.639373750E-1,1.157872075E0,-1.228558773E0,-2.095994092E0,2.691322284E0
4.739273750E-1,1.080435206E0,-1.887974864E0,-2.787069494E0,3.535469655E0
4.839173750E-1,1.264023744E0,-1.754679982E0,-3.078995828E0,3.762562049E0
4.939073750E-1,1.208695343E0,-1.638947796E0,-2.762524636E0,3.432001847E0
5.038973750E-1,1.170700136E0,-1.445219455E0,-1.821139873E0,2.603026800E0
5.138873750E-1,1.026719321E0,-1.998383890E0,-6.573369670E-1,2.340893552E0
5.238773750E-1,1.309106654E0,-2.725276411E0,-4.570183754E-1,3.057737324E0
5.338673750E-1,1.776150519E0,-2.938745975E0,-4.535498071E-1,3.463617473E0
5.438563750E-1,2.154110299E0,-2.849033607E0,-9.699542588E-1,3.701080240E0
5.538463750E-1,2.588796843E0,-2.784432107E0,-1.752293587E0,4.186342564E0
5.638363750E-1,3.097547581E0,-2.795041003E0,-2.848958763E0,5.052090781E0
5.738263750E-1,3.149032023E0,-2.997247953E0,-4.254976146E0,6.083150497E0
5.838163750E-1,3.156145161E0,-3.563107277E0,-5.272982823E0,7.103614122E0
5.938063750E-1,2.537102194E0,-4.097909408E0,-4.586418548E0,6.653193531E0
6.037963750E-1,1.214759929E0,-3.958802978E0,-2.360599896E0,4.766570526E0
6.137863750E-1,4.710891151E-1,-3.712715306E0,-8.638003975E-1,3.840876336E0
6.237753750E-1,5.702514607E-1,-3.736777768E0,1.841247278E-1,3.784520674E0
6.337653750E-1,1.211532704E0,-3.621234156E0,3.902127671E-1,3.838412993E0
6.437553750E-1,1.915860966E0,-3.539830681E0,3.549423623E-1,4.040656948E0
6.537453750E-1,2.065833862E0,-3.501087907E0,-1.978458041E-1,4.069942142E0
6.637353750E-1,2.298806521E0,-3.357679389E0,4.757879376E-3,4.069219205E0
6.737253750E-1,2.142994889E0,-3.631754466E0,-1.589857936E-1,4.219874889E0
6.837153750E-1,1.598571749E0,-3.760996351E0,-4.830893558E-1,4.115082078E0
6.937053750E-1,1.331851884E0,-4.273794824E0,1.419511002E-1,4.478761186E0
7.036953750E-1,1.108530931E0,-4.563086404E0,-4.085665923E-1,4.713546967E0
7.136843750E-1,5.254386923E-1,-4.278172050E0,1.387351316E-1,4.312550214E0
7.236743750E-1,4.383654651E-1,-4.046545712E0,2.344207227E-1,4.076965729E0
7.336643750E-1,8.241475046E-2,-3.981990112E0,2.452912813E-1,3.990389111E0
7.436543750E-1,-4.916961649E-1,-4.105013191E0,3.420328796E-1,4.148479830E0
7.536443750E-1,-1.306937191E0,-4.097262121E0,5.375988543E-1,4.334126699E0
7.636343750E-1,-2.245470267E0,-4.037398912E0,8.277400339E-1,4.693386864E0
7.736243750E-1,-3.102913571E0,-3.926763160E0,1.139262142E0,5.132782849E0
7.836143750E-1,-3.910037785E0,-3.620066759E0,9.870211118E-1,5.419177935E0
7.936033750E-1,-4.814276941E0,-3.100105446E0,8.146779388E-1,5.783737233E0
8.035933750E-1,-5.440870417E0,-2.720466784E0,1.163338053E0,6.193332370E0
8.135833750E-1,-6.322115983E0,-2.496599700E0,1.222634374E0,6.906301136E0
8.235733750E-1,-7.510778911E0,-2.434764225E0,1.262541329E0,7.995866888E0
8.335633750E-1,-8.763889850E0,-2.141596527E0,1.264915006E0,9.110006090E0
8.435533750E-1,-9.711965582E0,-1.960821669E0,1.625745222E0,1.004042552E1
8.535433750E-1,-1.061400969E1,-1.656642494E0,1.746403394E0,1.088354680E1
8.635333750E-1,-1.080878396E1,-1.048897517E0,1.809421322E0,1.100926892E1
8.735233750E-1,-1.065405961E1,-2.149565113E-1,1.937471398E0,1.083092738E1
8.835123750E-1,-1.086543412E1,7.162149203E-1,2.536754869E0,1.118059693E1
8.935023750E-1,-1.059804913E1,1.750861604E0,2.966574921E0,1.114382020E1
9.034923750E-1,-9.802142512E0,2.622167487E0,2.901873141E0,1.055360734E1
9.134823750E-1,-9.276162660E0,3.389211668E0,2.952891267E0,1.030793463E1
9.234723750E-1,-9.074930733E0,3.880289490E0,2.976172541E0,1.030866710E1
9.334623750E-1,-8.761400106E0,4.254005508E0,2.704976340E0,1.010819428E1
9.434523750E-1,-7.858577730E0,4.439570990E0,2.303517623E0,9.315214863E0
9.534423750E-1,-6.895797420E0,4.551539907E0,2.042769227E0,8.511253944E0
9.634313750E-1,-6.016773797E0,4.618276518E0,1.761969559E0,7.786821023E0
9.734213750E-1,-4.920364144E0,4.468315317E0,9.789408445E-1,6.718195461E0
9.834113750E-1,-3.875458521E0,4.426389611E0,9.707863176E-1,5.962761928E0
9.934013750E-1,-3.154773404E0,4.812728598E0,1.500632933E0,5.947003530E0
1.003391375E0,-2.634937221E0,5.084082674E0,2.401459655E0,6.209492674E0
1.013381375E0,-2.545826240E0,4.407376220E0,2.880515016E0,5.848381242E0
1.023371375E0,-2.310592754E0,4.000333997E0,2.130465767E0,5.087277793E0
1.033360375E0,-1.135243936E0,3.904401069E0,1.755280344E0,4.428784888E0
1.043350375E0,3.861787730E-1,3.362527900E0,1.767809758E0,3.818491752E0
1.053340375E0,1.126964278E0,2.951517171E0,1.676751069E0,3.576729825E0
1.063330375E0,1.162483774E0,3.182519612E0,2.622283262E0,4.284410007E0
1.073320375E0,1.883344892E0,2.807018439E0,3.316143107E0,4.735308396E0
1.083310375E0,2.615375946E0,1.363333878E0,3.390831932E0,4.494064062E0
1.093300375E0,1.724047442E0,8.933639199E-1,3.250247326E0,3.786099095E0
1.103290375E0,7.267837626E-1,4.266099304E-1,2.984285553E0,3.100995151E0
1.113280375E0,5.044293541E-1,2.760821342E-2,2.012091225E0,2.074541464E0
1.123269375E0,1.875943487E0,-1.576536224E0,7.690070915E-1,2.568268354E0
1.133259375E0,3.632009697E0,-3.760101142E0,1.725396395E-2,5.227824857E0
1.143249375E0,5.613427014E0,-5.070983741E0,7.327531850E-1,7.600155668E0
1.153239375E0,6.320921981E0,-5.126403067E0,-1.333972085E-1,8.139524428E0
1.163229375E0,6.779903852E0,-5.148314338E0,-1.443227674E-1,8.514285984E0
1.173219375E0,6.682907315E0,-4.428103430E0,5.200319912E-1,8.033665629E0
1.183209375E0,5.125025463E0,-3.788075391E0,1.563057223E0,6.561901328E0
1.193199375E0,2.770366922E0,-3.236404628E0,2.181965119E0,4.786462115E0
1.203188375E0,1.394555086E0,-2.066001384E0,2.233314198E0,3.346765291E0
1.213178375E0,1.623102865E0,-2.422210253E0,1.970146662E0,3.518954858E0
1.223168375E0,2.466792934E0,-3.185387671E-1,2.994389541E0,3.892672995E0
1.233158375E0,1.983960271E0,2.435378183E0,1.094144441E0,3.326306857E0
1.243148375E0,1.600923207E0,-9.084637696E-1,-2.214207251E0,2.879405370E0
1.253138375E0,3.981997713E0,-1.385979559E0,-3.423126689E0,5.430933755E0
1.263128375E0,5.008507996E0,7.520513356E-1,-3.043142456E0,5.908591166E0
1.273118375E0,4.387954693E0,1.034852505E0,-2.425735686E0,5.119497995E0
1.283107375E0,4.527825354E0,7.090778089E-1,-3.251337832E0,5.619180676E0
1.293097375E0,4.072102722E0,-3.108356452E-1,-3.466882280E0,5.357043226E0
1.303087375E0,1.504496189E0,-3.532580134E0,-3.919524892E0,5.486830284E0
1.313077375E0,-1.666415530E-1,-4.072267029E0,-1.674595200E0,4.406290645E0
1.323067375E0,-3.032275406E0,-1.867814687E0,4.955279623E0,6.102312839E0
1.333057375E0,-6.029490906E0,3.515427911E-1,8.230672899E0,1.020893331E1
1.343050250E0,-6.319678279E0,1.504495019E0,4.503368790E0,7.904566355E0
1.353040250E0,-5.584014350E0,1.907245386E0,2.369460913E0,6.358706334E0
1.363029250E0,-4.096733533E0,1.929701033E0,1.306034234E0,4.713034812E0
1.373019250E0,-2.503264064E0,2.267077190E0,4.115761542E-1,3.402258793E0
1.383009250E0,-1.825631412E0,1.696829238E0,-1.570125337E0,2.945751702E0
1.392999250E0,-1.683216628E0,1.114313242E0,-2.329882718E0,3.082736722E0
1.402989250E0,-1.326545536E0,1.162144051E0,-2.134019120E0,2.768454345E0
1.412979250E0,-8.391982377E-1,1.665897467E0,-1.360656438E0,2.308864222E0
1.422969250E0,-2.768846646E-1,2.268447193E0,-6.135870031E-1,2.366222051E0
1.432959250E0,3.008671658E-1,2.615435003E0,-2.815563341E-1,2.647696220E0
1.442949250E0,8.147938599E-1,1.770173787E0,5.485173601E-1,2.024419810E0
1.452938250E0,1.676045164E0,2.029112470E-1,4.140623903E-1,1.738317586E0
1.462928250E0,2.764883403E0,-1.815666295E0,-1.505751586E-1,3.311177616E0
1.472918250E0,3.684513893E0,-4.065410584E0,-7.765078998E-1,5.541314858E0
1.482908250E0,4.050205484E0,-6.116360065E0,-2.492073956E0,7.747545257E0
1.492898250E0,3.337533392E0,-8.882362041E0,-5.002411104E0,1.072658387E1
1.502888250E0,2.048694503E0,-1.111300523E1,-6.049035809E0,1.281744392E1
1.512878250E0,4.952099030E-1,-9.374787061E0,-3.826491598E0,1.013774646E1
1.522868250E0,-1.356968453E0,-3.354696139E0,-6.925828135E-1,3.684429470E0
1.532857250E0,-2.167157484E0,1.628746598E0,1.143474476E0,2.942264590E0
1.542847250E0,-1.731280009E0,2.275193126E0,1.953592172E0,3.462709431E0
1.552837250E0,-1.146618524E0,1.032721195E0,2.200617737E0,2.687743576E0
1.562827250E0,-1.085916532E0,1.414821535E-1,1.901587620E0,2.194371753E0
1.572817250E0,-1.372718367E0,-1.758889246E-1,1.076457199E0,1.753297673E0
1.582807250E0,-1.715821579E0,-4.055956221E-1,-8.334270358E-2,1.765077196E0
1.592797250E0,-2.088174903E0,-4.799318594E-1,-1.289351982E0,2.500647426E0
1.602787250E0,-2.197323708E0,-2.917322069E-1,-2.084634122E0,3.042866836E0
1.612776250E0,-2.139776581E0,-5.359528631E-1,-2.312670854E0,3.195987448E0
1.622766250E0,-2.031123620E0,-1.195197777E0,-2.066115405E0,3.134133652E0
1.632756250E0,-1.886442162E0,-1.572986380E0,-1.627446762E0,2.946444153E0
1.642746250E0,-1.774402055E0,-1.715147980E0,-4.894575584E-1,2.515910163E0
1.652736250E0,-2.191384545E0,-1.856017930E0,1.081580529E0,3.068678090E0
1.662726250E0,-3.459227983E0,-1.975409887E0,8.753299373E-1,4.078566532E0
1.672716250E0,-3.628780864E0,-2.417666382E0,5.664408302E-1,4.397046340E0
1.682706250E0,-2.328639893E0,-2.311346460E0,1.493908051E0,3.605086333E0
1.692695250E0,-1.378056436E0,4.972782093E-1,1.785479898E0,2.309602482E0
1.702685250E0,-4.446792886E-1,3.243397313E0,1.682457951E0,3.680764942E0
1.712675250E0,1.096672193E0,4.682808144E0,1.251688166E0,4.969718833E0
1.722665250E0,2.955856390E0,5.085550325E0,3.724102613E-1,5.893945920E0
1.732655250E0,4.497375394E0,4.836144943E0,-7.960301448E-1,6.651943125E0
1.742645250E0,4.528127071E0,3.865876688E0,-1.002708607E0,6.037744768E0
1.752635250E0,1.951083424E0,2.957970743E0,-5.135679674E-1,3.580512463E0
1.762625250E0,-3.822441816E-2,1.863352093E0,1.116907360E-1,1.867087825E0
1.772614250E0,-3.937041396E-1,1.628154275E0,1.641623336E-1,1.683103848E0
1.782604250E0,-3.679731748E-1,1.953764080E0,-1.313559455E-1,1.992448926E0
1.792594250E0,-8.397502148E-1,2.761772100E0,-1.085751933E-1,2.888659573E0
1.802584250E0,-2.007643541E0,3.831740643E0,1.871680574E-1,4.329884620E0
1.812574250E0,1.059470453E0,2.244033313E0,1.637998062E0,2.973415680E0
1.822564250E0,9.696069342E0,-1.911656526E0,1.721624941E0,1.003155939E1
1.832554250E0,8.150639135E0,-2.076356218E0,-8.485720553E-2,8.411383608E0
1.842544250E0,4.550391514E0,-9.595239955E-1,-3.687319972E-2,4.650603064E0
1.852533250E0,2.099962890E0,1.290767008E-1,-5.518152628E-1,2.175087359E0
1.862523250E0,4.583265437E-1,1.052892920E0,-9.457485402E-1,1.487644790E0
1.872513250E0,-6.752097125E-1,1.690390284E0,-8.000394344E-1,1.988313498E0
1.882503250E0,-1.370696253E0,2.012439719E0,-5.608544004E-1,2.498655539E0
1.892493250E0,-1.758216670E0,2.075179759E0,-1.681104467E-1,2.725061102E0
1.902483250E0,-1.788817196E0,1.760001386E0,-1.707223248E-1,2.515276914E0
1.912473250E0,-1.522508244E0,1.171863878E0,-5.513263625E-1,1.998813913E0
1.922463250E0,-1.150009325E0,7.229994446E-1,-7.227656291E-1,1.538713683E0
1.932452250E0,-1.023762091E0,4.423664224E-1,-3.951677708E-1,1.183188252E0
1.942442250E0,-1.138208182E0,2.633574235E-1,-5.775294900E-3,1.168292922E0
1.952432250E0,-1.254079969E0,1.109193420E-1,2.713913882E-1,1.287894776E0
1.962422250E0,-1.233813812E0,-1.370411932E-2,2.714768672E-1,1.263401763E0
1.972412250E0,-1.193210454E0,2.831455708E-2,1.055311328E-1,1.198202705E0
1.982402250E0,-1.364252476E0,1.446671319E-1,4.842627458E-3,1.371909927E0
1.992392250E0,-1.559637040E0,1.639804852E-1,-6.233139195E-2,1.569472045E0
2.002382250E0,-1.613352925E0,8.678262055E-2,-3.318406345E-1,1.649411135E0
2.012371250E0,-1.427480611E0,-2.933372676E-2,-6.057446809E-1,1.550963565E0
2.022361250E0,-1.506136333E0,-9.170065516E-1,-5.043182935E-1,1.834035062E0
2.032351250E0,-1.457996791E0,-2.250160611E0,6.176811504E-1,2.751455509E0
2.042341250E0,-1.317522405E0,-3.690539741E0,1.724111761E0,4.281180939E0
2.052331250E0,-1.310017358E0,-4.266223850E0,1.815601391E0,4.818009944E0
2.062321250E0,-9.294484033E-1,-2.856506934E0,2.255064086E0,3.756170953E0
2.072311250E0,-9.289595760E-1,-2.108260381E0,1.133978013E0,2.567807209E0
2.082301250E0,-4.776856515E-1,-8.448905021E-1,1.952923250E-1,9.900316330E-1
2.092290250E0,1.325376678E-1,-4.358204645E-1,-3.888556284E-1,5.989277171E-1
2.102280250E0,8.481000388E-1,-6.472323936E-1,-8.922956336E-1,1.390818085E0
2.112270250E0,2.119013703E0,-6.309210008E-1,-1.369036083E0,2.600488450E0
2.122260250E0,3.278179183E0,-6.876191121E-1,-1.929282957E0,3.865412207E0
2.132250250E0,3.038020880E0,-4.172953159E-1,-1.762116909E0,3.536772858E0
2.142240250E0,1.340798270E0,-3.637962162E-2,-1.026961103E0,1.689293517E0
2.152230250E0,-3.307241891E0,4.909119948E0,1.354533234E0,6.072237468E0
2.162220250E0,-4.084179269E0,8.346209203E0,1.921053586E0,9.488423222E0
2.172209250E0,-2.126532053E0,7.430781984E0,1.058497476E0,7.801222749E0
2.182199250E0,-4.109060633E-1,3.938602602E0,6.602161360E-1,4.014638165E0
2.192189250E0,1.901461905E-1,-1.300999051E0,2.436043596E-1,1.337197513E0
2.202179250E0,6.227799225E-1,-2.250010337E0,1.324273893E0,2.684045956E0
2.212169250E0,1.581967118E-1,2.870982885E-4,1.858293082E0,1.865014600E0
2.222159250E0,2.328226787E-1,7.722517115E-1,8.191247463E-1,1.149584471E0
2.232149250E0,2.182044934E0,-1.844208893E0,4.512951207E-1,2.892420063E0
2.242139250E0,2.473538574E0,-3.835881642E0,3.147181233E-1,4.575087818E0
2.252128250E0,1.140434801E0,-4.394768454E0,-5.071465552E-1,4.568564209E0
2.262118250E0,2.820977497E-1,-4.172932109E0,-5.135527647E-1,4.213867341E0
2.272108250E0,-4.410277024E-1,-2.869475473E0,-4.035093355E-1,2.931077397E0
2.282098250E0,-9.982869422E-1,-1.150748413E0,-5.514122435E-1,1.620140176E0
2.292088250E0,-1.058603603E0,-3.165173846E-1,-1.022117781E0,1.505174276E0
2.302078250E0,-9.142665464E-1,1.120770907E-1,-2.054164281E0,2.251229772E0
2.312068250E0,5.229398847E-2,3.073010033E-1,-2.583171237E0,2.601911260E0
2.322058250E0,1.051142556E0,7.872925043E-1,-1.392051308E0,1.913775589E0
2.332047250E0,1.251317306E0,1.175448221E0,-1.567252600E-1,1.723959491E0
2.342037250E0,1.312644365E0,9.991599315E-1,1.665836656E-1,1.658042797E0
2.352024250E0,1.327537808E0,7.494259357E-2,-2.181056754E-1,1.347420911E0
2.362014250E0,3.332915846E-1,-1.502974743E0,-7.264965912E-1,1.702296583E0
2.372004250E0,-9.767472616E-1,-2.596140946E0,-8.091331704E-1,2.889408159E0
2.381994250E0,-1.973244663E0,-2.709369353E0,-5.302151366E-1,3.393450292E0
2.391984250E0,-2.463187833E0,-2.361742442E0,-2.469980836E-1,3.421422178E0
2.401974250E0,-2.208929262E0,-1.792271000E0,-1.481158197E-1,2.848428008E0
2.411963250E0,-1.223928948E0,-1.032290255E0,-4.581176519E-2,1.601787738E0
2.421953250E0,-1.926838821E-1,-6.913601607E-1,-1.959005816E-1,7.439643729E-1
2.431943250E0,8.219024661E-1,-5.368387163E-1,-3.598261030E-1,1.045559322E0
2.441933250E0,1.361744312E0,-3.621549028E-1,-2.712020481E-1,1.434940520E0
2.451923250E0,8.897418621E-1,-1.638442451E-1,1.111426326E-1,9.115032653E-1
2.461913250E0,4.213737488E-2,4.431312382E-1,6.493205074E-1,7.872470857E-1
2.471903250E0,-3.501192865E-1,8.202602756E-1,7.141333115E-1,1.142539637E0
2.481893250E0,-4.940408984E-1,4.084864855E-1,2.390072787E-1,6.841506394E-1
2.491882250E0,-4.998439676E-1,2.543515420E-1,-3.760016942E-1,6.752155011E-1
2.501872250E0,4.526958212E-1,2.761967397E-1,-1.306753296E0,1.410256119E0
2.511862250E0,1.377214583E0,-7.484436035E-5,-1.669979993E0,2.164613866E0
2.521852250E0,1.399872544E0,3.745550931E-2,-1.054451714E0,1.752973038E0
2.531842250E0,1.202902360E0,-1.946362674E-2,-3.766929082E-1,1.260654778E0
2.541832250E0,8.493946123E-1,-4.050366282E-3,1.465323571E-1,8.619508945E-1
2.551822250E0,6.827574447E-1,2.092934829E-1,4.179496193E-1,8.274317945E-1
2.561812250E0,5.434516248E-1,4.688046080E-1,3.932217443E-1,8.183769114E-1
2.571801250E0,4.061747888E-1,6.835669917E-1,2.800851381E-1,8.430240066E-1
2.581791250E0,3.934071010E-1,6.032689333E-1,1.591746587E-1,7.375900792E-1
2.591781250E0,3.100468558E-1,4.405608022E-1,1.802053575E-1,5.680641197E-1
2.601771250E0,1.606727153E-2,4.879355282E-1,4.407900131E-1,6.577500076E-1
2.611761250E0,-9.830455899E-2,4.998726189E-2,6.872712028E-1,6.960633727E-1
2.621751250E0,-4.786519039E-1,-1.061840329E0,7.670973909E-1,1.394650830E0
2.631741250E0,-8.156699190E-1,-1.455314088E0,-5.782627674E-1,1.765685233E0
2.641730250E0,-1.071204060E0,-9.669809496E-1,-1.990751958E0,2.458784996E0
2.651720250E0,-9.251751119E-1,-7.705174273E-1,-5.100187075E-1,1.307579893E0
2.661710250E0,-3.164393243E-1,2.294213533E-2,1.612881932E0,1.643790837E0
2.671700250E0,2.938781351E-2,5.203770500E-1,1.896291797E0,1.966616002E0
2.681690250E0,2.105251989E-1,-1.107848561E-1,1.477446384E0,1.496476516E0
2.691680250E0,4.918800598E-1,-6.170174915E-1,1.956145797E-1,8.129708739E-1
2.701670250E0,5.003430274E-1,-3.859127247E-1,-4.389246782E-1,7.693676945E-1
2.711660250E0,7.986475047E-1,1.028905302E0,-1.252212807E0,1.806798514E0
2.721649250E0,1.638723994E0,2.698069609E0,-1.064064610E0,3.331250432E0
2.731639250E0,2.193858648E0,2.556980388E0,4.701914944E-1,3.401800187E0
2.741629250E0,1.999314767E0,-1.794393539E-1,8.750679090E-1,2.189794937E0
2.751619250E0,1.161866893E0,-1.969874913E0,1.105847059E0,2.540322729E0
2.761609250E0,2.578256652E-1,-2.332638511E0,7.634585955E-1,2.467903062E0
2.771599250E0,-6.344734767E-1,-1.813378864E0,9.406408511E-2,1.923472784E0
2.781589250E0,-9.008100566E-1,-8.685752338E-1,-7.250266743E-1,1.446217609E0
2.791579250E0,-9.283875722E-1,1.472954553E-1,-9.263544953E-1,1.319746978E0
2.801568250E0,-7.970254871E-1,8.001984787E-1,-6.673713738E-1,1.311850519E0
2.811558250E0,-3.826172340E-1,7.639001334E-1,2.213942226E-1,8.825841395E-1
2.821548250E0,3.127848145E-1,1.654177308E-1,5.793456352E-1,6.788510373E-1
2.831538250E0,6.303234154E-1,-5.140339905E-1,7.038281056E-1,1.075598695E0
2.841528250E0,1.156366710E0,-2.138806236E-1,1.570993649E0,1.962383737E0
2.851518250E0,1.335432134E0,3.882785082E-1,1.761377236E0,2.244234603E0
2.861508250E0,5.839777994E-1,-2.211060280E-1,1.389380300E0,1.523251642E0
2.871498250E0,-1.904224715E-1,-3.569450337E-1,7.227667254E-1,8.282887263E-1
2.881487250E0,-5.292080998E-1,6.023918509E-1,-4.069953724E-1,8.992120930E-1
2.891477250E0,-5.960724726E-1,1.255689561E0,-1.979282864E-1,1.404006508E0
2.901467250E0,-5.625199798E-1,1.918148689E0,9.499619707E-1,2.213176646E0
2.911457250E0,-6.937051865E-1,1.332338372E0,1.593761537E0,2.190074944E0
2.921447250E0,-3.021314800E-1,3.462323499E-1,3.069382421E0,3.103589650E0
2.931437250E0,5.642226890E-1,-8.896678948E-1,2.767666678E0,2.961390728E0
2.941427250E0,1.494353608E0,-8.230903280E-1,-1.454826431E0,2.242117378E0
2.951417250E0,1.561424096E0,3.342227536E-1,-2.651753229E0,3.095407121E0
2.961406250E0,2.854540515E-1,-8.629712623E-1,-2.809475439E0,2.952855509E0
2.971396250E0,-8.227351096E-1,3.340362275E-1,-3.191140162E0,3.312378118E0
2.981386250E0,-6.493695509E-1,1.538541017E0,-2.059891629E0,2.651781061E0
2.991376250E0,-8.355267709E-1,1.259790798E0,-9.346785915E-1,1.777301862E0
3.001366250E0,-6.749519965E-1,6.482527328E-1,-3.963652074E-1,1.016315493E0
3.011356250E0,-1.359284681E-1,7.998891610E-1,5.733961298E-1,9.935201759E-1
3.021346250E0,2.137744966E-1,1.064745811E0,7.698145920E-1,1.331164033E0
3.031335250E0,5.132191810E-1,1.333354034E0,-2.057015383E-1,1.443447273E0
3.041325250E0,-1.993783593E-2,1.103056183E0,-1.301093191E-1,1.110882035E0
3.051315250E0,1.211227626E0,-7.645643771E-2,3.904039711E-1,1.274885567E0
3.061305250E0,1.739923363E0,-5.037200868E-1,-5.697900788E-1,1.898875449E0
3.071295250E0,-9.219480336E-1,-4.875683230E-1,-1.144108315E0,1.548126249E0
3.081285250E0,-2.037422679E0,-1.252288821E0,-1.627276023E0,2.892636465E0
3.091275250E0,-2.200428872E0,-2.401427495E0,-2.248634487E-1,3.264859079E0
3.101265250E0,-1.232040498E0,-2.106568782E0,5.916049075E-1,2.511085858E0
3.111254250E0,-9.374672748E-1,-1.069050531E0,3.082956147E-1,1.454908971E0
3.121244250E0,-5.081528610E-1,-4.822344929E-1,1.057772933E0,1.268721015E0
3.131234250E0,-5.646042198E-2,-1.475771157E0,1.111992921E0,1.848679676E0
3.141224250E0,5.121104027E-1,-3.448913494E0,2.120129498E-1,3.493166307E0
3.151214250E0,8.929117839E-1,-4.488891669E0,9.466501808E-1,4.673712275E0
3.161204250E0,8.484725064E-1,-4.868915663E0,1.927933420E0,5.305013911E0
3.171194250E0,9.827498670E-1,-4.930595017E0,2.221110474E0,5.496352996E0
3.181184250E0,1.008938815E0,-4.577793905E0,1.382948948E0,4.887402415E0
3.191173250E0,4.211106241E-1,-3.816057242E0,4.789571285E-2,3.839520937E0
3.201163250E0,-2.283710472E-1,-4.573638874E0,-2.469508381E0,5.202768256E0
3.211153250E0,1.162961784E0,-1.916081699E0,1.980755997E0,2.991194328E0
3.221143250E0,6.597520132E-1,-1.676817142E0,-6.513904949E-1,1.916063158E0
3.231133250E0,5.858133866E-1,-3.658012850E0,-1.032178135E0,3.845728414E0
3.241123250E0,8.211909331E-1,-3.519686438E0,-7.133126548E-1,3.683932969E0
3.251113250E0,1.285530388E0,-3.383050457E0,-1.567285491E0,3.943856309E0
3.261103250E0,1.588790234E0,-4.020804514E0,-1.807488087E0,4.685950974E0
3.271092250E0,1.807227593E0,-4.477487844E0,-4.202908444E-1,4.846711603E0
3.281082250E0,5.851788541E-1,-3.783068420E0,-6.361557207E-1,3.880558602E0
3.291072250E0,-2.616281095E-1,-2.048385478E0,-1.337081926E0,2.460105772E0
3.301062250E0,3.745879836E-1,-2.076571981E0,-2.177162216E0,3.031914027E0
3.311052250E0,5.643704773E-1,-1.906926128E0,-3.082207704E0,3.668090187E0
3.321042250E0,1.157720486E0,-1.467694983E0,-2.662748918E0,3.253410071E0
3.331032250E0,1.673993083E0,-1.813830854E0,-1.474025471E0,2.874888919E0
3.341022250E0,1.602722687E0,-1.428016947E0,-1.392093408E0,2.558491053E0
3.351010875E0,2.129071206E0,-8.971786433E-1,-1.489503928E0,2.748908087E0
3.361000875E0,2.400550705E0,-1.069794297E0,-1.411084580E0,2.982995678E0
3.370990875E0,2.581770828E0,-2.027573483E0,-1.533884879E0,3.623451071E0
3.380980875E0,3.273179813E0,-2.682728854E0,-1.640301865E0,4.538868846E0
3.390970875E0,3.437288645E0,-2.053945010E0,-1.291104100E0,4.207207284E0
3.400960875E0,3.403882917E0,-9.655729401E-1,-1.580373460E0,3.875091004E0
3.410950875E0,2.558162988E0,-5.667688590E-1,-2.504130914E0,3.624375318E0
3.420940875E0,1.465083324E0,-4.447778141E-1,-2.604803011E0,3.021472352E0
3.430929875E0,7.561736226E-1,9.557449400E-1,-2.640571014E0,2.908240399E0
3.440919875E0,-7.421897140E-1,1.397265270E0,-3.363119638E0,3.716687975E0
3.450909875E0,-1.259845178E0,9.769878745E-2,-3.405309930E0,3.632201900E0
3.460899875E0,6.390147167E-1,-1.324159872E0,-2.101427910E0,2.564710205E0
3.470889875E0,3.516920998E0,-1.069688462E0,-3.804900169E-1,3.695637883E0
3.480879875E0,4.646863555E0,1.943567705E-1,6.953111243E-1,4.702613424E0
3.490869875E0,3.434123255E0,6.344766927E-1,-9.034567988E-1,3.607214630E0
3.500859875E0,2.434139743E0,8.987971526E-1,-2.983368709E0,3.953904585E0
3.510848875E0,1.960714080E0,1.006944914E0,-3.457686072E0,4.100479330E0
3.520838875E0,1.428020309E0,5.659122419E-1,-3.027414030E0,3.394809918E0
3.530828875E0,6.688583207E-1,6.682519644E-1,-3.625939702E0,3.747181723E0
3.540818875E0,1.306925789E-2,9.142145061E-1,-3.567051809E0,3.682365758E0
3.550808875E0,-1.020349583E0,1.537632945E0,-3.100528784E0,3.608144549E0
3.560798875E0,-2.081822780E0,2.797412049E0,-2.926684046E0,4.552469634E0
3.570788875E0,-2.375616423E0,3.449853727E0,-3.088478842E0,5.204204616E0
3.580778875E0,-2.630130810E0,2.526284260E0,-4.259328228E0,5.607278948E0
3.590767875E0,-2.635136027E0,5.884275305E-1,-4.885460944E0,5.581927756E0
3.600757875E0,-2.343647795E0,-3.396828836E-1,-4.940072769E0,5.478356360E0
3.610747875E0,-2.269756531E0,-1.077359424E0,-3.355782552E0,4.192108607E0
3.620737875E0,-3.423245387E0,1.275687624E0,-2.662978129E0,4.520778739E0
3.630727875E0,-4.348821033E0,2.298569124E0,-1.256573660E0,5.076873227E0
3.640717875E0,-5.585839850E0,1.293854338E0,1.952367765E-1,5.737053536E0
3.650707875E0,-5.837063717E0,2.757067430E-1,-5.590277302E-1,5.870250339E0
3.660697875E0,-6.122149394E0,-2.497018361E-1,-3.634944999E-1,6.138012093E0
3.670686875E0,-6.752647641E0,-6.010937691E-3,5.578267121E-1,6.775651772E0
3.680676875E0,-7.505365559E0,3.573022985E-1,1.188747128E0,7.607318637E0
3.690666875E0,-7.930819495E0,6.647050434E-1,1.380310099E0,8.077436884E0
3.700656875E0,-7.619539461E0,2.990459043E-1,1.215453116E0,7.721666681E0
3.710646875E0,-6.773496473E0,-5.221452481E-1,1.121625770E0,6.885559854E0
3.720636875E0,-5.743930435E0,-7.058893222E-1,1.014018876E0,5.875308576E0
3.730626875E0,-4.517258559E0,-8.513937753E-1,1.371766732E0,4.797107484E0
3.740616875E0,-3.186231424E0,-1.020467770E0,2.063816280E0,3.931000228E0
3.750605875E0,-2.229190741E0,-5.979754490E-1,2.234487734E0,3.212444775E0
3.760595875E0,-1.333729133E0,-5.013958186E-1,2.556862859E0,2.927076843E0
3.770585875E0,-5.530153307E-1,-1.058694527E0,2.708647807E0,2.960309612E0
3.780575875E0,6.192932278E-2,-1.069052870E0,2.749437398E0,2.950612697E0
3.790565875E0,4.123289832E-1,-1.065415902E0,3.030220694E0,3.238419937E0
3.800555875E0,4.731303781E-1,-8.162742287E-1,3.510558935E0,3.635131360E0
3.810545875E0,7.208345130E-1,-4.817111671E-1,4.086975115E0,4.177919773E0
3.820535875E0,9.353901976E-1,-5.470567256E-1,4.440293413E0,4.570605154E0
3.830524875E0,1.248796717E0,-9.847980005E-1,4.392379282E0,4.671436192E0
3.840514875E0,1.697277427E0,-8.119484586E-1,3.294430057E0,3.793847699E0
3.850504875E0,2.300766508E0,-2.796004039E-1,2.577742097E0,3.466476197E0
3.860494875E0,2.814829735E0,-2.556624877E-1,2.518708608E0,3.785831849E0
3.870484875E0,3.032195883E0,-1.159263128E-1,2.152839846E0,3.720533589E0
3.880474875E0,3.308215452E0,-5.296349466E-2,1.854978587E0,3.793157019E0
3.890464875E0,3.494970258E0,-2.799091369E-1,1.592528359E0,3.850884678E0
3.900454875E0,3.620250362E0,-7.642416108E-1,1.388802595E0,3.952094453E0
3.910443875E0,3.637171034E0,-1.252211053E0,1.105022017E0,4.002264273E0
3.920433875E0,3.298034573E0,-1.088217119E0,7.518677330E-1,3.553386220E0
3.930423875E0,2.997826827E0,-6.014399242E-1,5.199893796E-1,3.101464915E0
3.940413875E0,2.676897718E0,-8.549091214E-1,3.421018767E-1,2.830845226E0
3.950403875E0,2.024751032E0,-1.245767421E0,-6.417319179E-2,2.378165555E0
3.960393875E0,1.723712835E0,-1.046497235E0,-2.431740046E-2,2.016664012E0
3.970383875E0,1.805412033E0,-7.556976593E-1,2.789373296E-1,1.976966766E0
3.980373875E0,1.616825294E0,-2.427079815E-1,3.630185366E-2,1.635343701E0
3.990362875E0,1.554140658E0,-9.473600328E-2,4.711920261E-2,1.557738204E0
4.000352875E0,1.421376849E0,-2.530423504E-1,3.200508571E-1,1.478774874E0
4.010342875E0,1.135987409E0,-5.387735599E-1,1.336422068E-1,1.264359356E0
4.020332875E0,7.969370480E-1,-1.031688577E-1,-2.411549610E-1,8.389923640E-1
4.030322875E0,1.257499275E-1,7.568922454E-1,-1.201912719E-1,7.766240128E-1
4.040312875E0,-8.011723325E-1,6.692179245E-1,-1.062848389E-1,1.049297958E0
4.050302875E0,-1.695751011E0,8.537227213E-2,-5.796093446E-1,1.794103372E0
4.060291875E0,-1.985935753E0,-9.130602658E-2,-4.347176796E-1,2.035007878E0
4.070281875E0,-2.201521717E0,8.781991661E-2,-5.356248343E-1,2.267444414E0
4.080271875E0,-1.919931213E0,3.744206071E-1,-8.806392092E-1,2.145192782E0
4.090261875E0,-1.606817785E0,9.045356101E-1,-1.401652436E0,2.316177371E0
4.100251875E0,-1.218131726E0,1.996460449E0,-1.893461160E0,3.009135156E0
4.110241875E0,-9.657340309E-1,2.187242816E0,-2.017508671E0,3.128420463E0
4.120231875E0,-7.920074067E-1,1.805657616E0,-1.675797973E0,2.587658015E0
4.130221875E0,-7.615451673E-1,1.378515004E0,-9.946312630E-1,1.862671739E0
4.140211875E0,-6.877983293E-1,1.512731407E0,-6.839090538E-1,1.796984821E0
4.150200875E0,-1.831739706E-1,2.175092302E0,-1.232148671E0,2.506545346E0
4.160190875E0,3.185063151E-1,1.660744316E0,-1.306580218E0,2.136976795E0
4.170180875E0,8.825606042E-1,2.483166307E-1,-4.264140487E-2,9.178195131E-1
4.180170875E0,1.000989818E0,-3.819196612E-1,5.384946477E-1,1.199091209E0
4.190160875E0,7.317269987E-1,-1.909536910E-1,6.256818956E-1,9.815118681E-1
4.200150875E0,5.495739520E-1,3.706959307E-2,4.156879163E-1,6.900740012E-1
4.210140875E0,5.798195520E-1,1.127465969E-1,4.801967382E-2,5.926283803E-1
4.220129875E0,8.167227101E-1,-1.118279994E-2,-7.143835723E-2,8.199173612E-1
4.230119875E0,1.142171424E0,-1.588583243E-1,-2.409889001E-1,1.178077748E0
4.240109875E0,1.583129252E0,1.491917074E-2,-2.607086349E-1,1.604521675E0
4.250099875E0,1.988098053E0,-9.800810516E-2,3.304881370E-1,2.017761598E0
4.260089875E0,2.152875806E0,-2.946996689E-4,1.353274913E0,2.542877762E0
4.270079875E0,2.183984748E0,-3.562901455E-1,1.570329405E0,2.713423389E0
4.280069875E0,2.296573177E0,-1.081553632E0,1.282361051E0,2.844021182E0
4.290059875E0,2.055018998E0,-1.357014207E0,1.163651463E0,2.723724540E0
4.300048875E0,1.495625963E0,-1.476175200E0,1.338613020E0,2.491560767E0
4.310038875E0,9.024021073E-1,-1.415371758E0,9.702214766E-1,1.938797692E0
4.320028875E0,5.849691948E-1,-1.559553571E0,1.564440089E-1,1.672982674E0
4.330018875E0,4.977228901E-1,-1.394576136E0,-3.811484134E-1,1.529001238E0
4.340008875E0,1.140727747E0,-3.653585923E-1,1.142750591E-1,1.203247889E0
4.349999750E0,1.720912165E0,4.787834662E-1,-1.631118813E-1,1.793705041E0
4.359989750E0,2.126419056E0,6.646459866E-1,-6.706309041E-1,2.326619457E0
4.369979750E0,2.302940503E0,4.422711128E-1,3.169980258E-1,2.366352984E0
4.379968750E0,2.112205790E0,-1.320815849E-1,1.733046892E0,2.735381212E0
4.389958750E0,1.647756188E0,-1.120747519E-1,2.288300829E0,2.822052779E0
4.399948750E0,1.406320561E0,4.338739264E-1,2.309109023E0,2.738241878E0
4.409938750E0,1.090136906E0,7.467297846E-1,1.817257614E0,2.246870954E0
4.419928750E0,1.073880623E0,1.396022737E0,1.476886221E0,2.298541273E0
4.429918750E0,9.948248059E-1,2.190911944E0,1.456959787E0,2.812917233E0
4.439908750E0,1.388789439E0,2.807887920E0,1.715288605E0,3.571440281E0
4.449898750E0,1.628747036E0,2.348041247E0,5.678804147E-1,2.913520683E0
4.459887750E0,1.288732469E0,1.214131646E0,-1.929444340E0,2.618721538E0
4.469877750E0,-1.038067889E-1,3.288070625E-1,-4.109878074E0,4.124316636E0
4.479867750E0,-2.030916921E0,1.013893746E0,-5.321043427E0,5.784989820E0
4.489857750E0,-3.595301462E0,2.556878647E0,-5.772467186E0,7.265342279E0
4.499847750E0,-4.412766768E0,3.556372454E0,-5.747481449E0,8.071792774E0
4.509837750E0,-4.327899696E0,3.384266678E0,-4.517920756E0,7.113057337E0
4.519827750E0,-2.370752417E0,2.499479454E0,-2.328363027E0,4.158021038E0
4.529817750E0,-1.097399586E-1,2.580378022E0,-1.659440387E0,3.069875566E0
4.539806750E0,1.017163070E0,2.093231868E0,-2.103422687E0,3.136977425E0
4.549796750E0,1.048638339E0,5.876790869E-1,-1.760333508E0,2.131615147E0
4.559786750E0,5.444684556E-1,3.971896648E-2,-2.731032702E-1,6.104169818E-1
4.569776750E0,1.674059303E-1,1.358384210E-1,5.598393238E-1,5.999140693E-1
4.579766750E0,-1.297182865E-1,8.270190722E-1,-2.832049200E-1,8.837377475E-1
4.589756750E0,-2.400958841E-1,1.027231244E0,-1.704911259E0,2.004887145E0
4.599746750E0,7.169358820E-2,5.958710361E-1,-3.161425489E0,3.217889585E0
4.609736750E0,2.775164562E-1,1.541431296E-1,-3.914202756E0,3.927054711E0
4.619725750E0,2.393032940E-1,9.818293691E-1,-2.801304248E0,2.978012838E0
4.629715750E0,5.724817349E-1,2.160573665E0,-9.592176014E-1,2.432264851E0
4.639705750E0,6.271097857E-1,2.429820405E0,3.226136917E-1,2.530093571E0
4.649695750E0,5.337192267E-1,2.194474068E0,8.177126437E-1,2.401921442E0
4.659685750E0,6.510893632E-1,1.494433131E0,1.088944074E0,1.960369082E0
4.669675750E0,2.683774044E-1,-7.474261880E-1,1.563976405E0,1.754050893E0
4.679665750E0,-6.649829324E-1,-2.020634007E0,2.544121776E0,3.316281005E0
4.689655750E0,-1.365811489E0,-1.196994041E0,2.586760257E0,3.160627214E0
4.699644750E0,-1.896554045E0,6.742190480E-2,7.901668493E-1,2.055681543E0
4.709634750E0,-1.491623544E0,8.039330953E-1,-5.896589541E-1,1.794142386E0
4.719624750E0,-3.114731379E-1,8.005066270E-1,-1.011710541E0,1.327171652E0
4.729614750E0,2.659300523E-1,1.948952991E-1,-1.223362060E0,1.267011326E0
4.739604750E0,5.313980283E-1,-6.683952212E-2,-1.061652780E0,1.189099664E0
4.749594750E0,7.646496002E-1,5.352833569E-2,-5.340742258E-1,9.342320764E-1
4.759584750E0,6.873688513E-1,5.548832238E-2,-1.318554439E-2,6.897309260E-1
4.769574750E0,1.046044515E0,5.628588259E-2,1.149770100E0,1.555425508E0
4.779563750E0,1.161416073E0,-8.209999484E-1,1.598608879E0,2.139737965E0
4.789553750E0,3.787152408E-1,-2.762657368E0,1.423508159E0,3.130826799E0
4.799543750E0,-7.199663477E-1,-3.202048143E0,1.499129614E0,3.608164831E0
4.809533750E0,-1.255798904E0,-2.287424331E0,1.461121543E0,2.990688403E0
4.819523750E0,-9.302192125E-1,-1.509834697E0,1.293065549E0,2.194749896E0
4.829513750E0,5.341431499E-3,-1.002057227E0,6.811409819E-1,1.211651870E0
4.839503750E0,5.320551091E-1,-3.294514257E-1,-5.771956140E-1,8.513375699E-1
4.849493750E0,7.406787935E-1,-6.685794085E-1,-1.040893849E0,1.441895802E0
4.859482750E0,8.588478059E-1,-1.884268168E0,-8.050627774E-1,2.221758798E0
4.869472750E0,5.065749899E-1,-2.308656741E0,-6.001014966E-1,2.438572528E0
4.879462750E0,1.223050404E-1,-2.634739001E0,5.659520030E-3,2.637582256E0
4.889452750E0,2.989226742E-1,-2.225240362E0,1.050232437E0,2.478716927E0
4.899442750E0,7.635380445E-1,-2.238252756E0,1.368618007E0,2.732376437E0
4.909432750E0,8.474488051E-1,-2.837293568E0,9.861563087E-1,3.121042860E0
4.919422750E0,9.775725961E-1,-2.440243067E0,5.829042506E-1,2.692621728E0
4.929412750E0,1.176307762E0,-2.724984927E0,1.397098990E-1,2.971323217E0
4.939401750E0,8.194328946E-1,-2.955905507E0,-1.311470683E0,3.335986059E0
4.949391750E0,1.436853844E-1,-2.262406434E0,-1.786605048E0,2.886362064E0
4.959381750E0,4.492564890E-1,-1.135478994E0,-1.885292015E0,2.246212350E0
4.969371750E0,8.834192678E-1,1.156859922E-1,-1.884925979E0,2.084888198E0
4.979361750E0,1.115118550E0,-3.096819896E-1,-1.912260543E0,2.235203056E0
4.989351750E0,1.187352056E0,1.842399180E-1,-2.540704079E0,2.810502885E0
4.999341750E0,9.061921263E-1,2.158499658E-1,-2.588749480E0,2.751254123E0
5.009331750E0,4.704904334E-1,4.395884103E-1,-2.306471636E0,2.394662947E0
5.019320750E0,2.406818116E-1,5.356423759E-1,-1.345666516E0,1.468216217E0
5.029310750E0,3.049692068E-1,-8.389292657E-2,-3.164511284E-2,3.178767897E-1
5.039300750E0,-7.439562310E-2,-2.508858973E-1,9.009530210E-1,9.381869687E-1
5.049290750E0,-6.410804649E-1,1.596664095E-1,1.348999429E0,1.502090871E0
5.059280750E0,-1.281686867E0,7.458708286E-1,1.049651223E0,1.816813752E0
5.069270750E0,-1.915606466E0,9.621295148E-1,8.865197539E-1,2.319732444E0
5.079260750E0,-2.713001059E0,2.895228950E0,1.214019964E0,4.149285467E0
5.089250750E0,-2.679856994E0,3.271880854E0,1.478570219E0,4.480291031E0
5.099239750E0,-2.174426743E0,2.374618596E0,9.017903423E-1,3.343676264E0
5.109229750E0,-1.574715694E0,1.587396843E0,6.248293716E-1,2.321630892E0
5.119219750E0,-1.040394496E0,9.213212121E-1,3.406648139E-2,1.390112948E0
5.129209750E0,-1.295536582E0,3.241170108E-2,-7.627529097E-1,1.503747836E0
5.139199750E0,-1.195508702E0,-1.155433787E0,-6.855731714E-1,1.798410094E0
5.149189750E0,-1.311497946E-1,-8.413997144E-1,-1.099001724E0,1.390308792E0
5.159179750E0,1.238695799E0,-1.060714740E0,-1.641701689E0,2.314015444E0
5.169169750E0,2.207513943E0,-6.729917175E-1,-1.825455118E0,2.942502685E0
5.179158750E0,2.043496182E0,-5.434747213E-1,-1.407298508E0,2.540025691E0
5.189148750E0,1.446752595E0,-2.407006323E-1,-4.295803159E-1,1.528256888E0
5.199138750E0,1.158691490E0,-1.498085886E-1,-2.708903915E-1,1.199329056E0
5.209128750E0,7.856715100E-1,-1.743721569E-1,-4.986043578E-1,9.467268224E-1
5.219118750E0,9.413797199E-1,-3.175096571E-1,3.268494147E-1,1.045867439E0
5.229108750E0,1.326796089E0,-1.357238156E-1,8.015485277E-1,1.556049118E0
5.239098750E0,1.310122169E0,2.367303729E-1,5.203845052E-1,1.429426948E0
5.249088750E0,7.412786447E-1,8.999379444E-1,3.684985471E-1,1.222772878E0
5.259077750E0,1.507663625E-1,1.817105294E0,3.986761732E-1,1.866425685E0
5.269067750E0,-1.668058598E-1,2.525931088E0,1.990772277E-1,2.539248668E0
5.279057750E0,-5.146484598E-1,1.593836381E0,-1.080115217E-1,1.678345595E0
5.289047750E0,-9.075998434E-1,2.029128842E0,1.254577129E-1,2.226396410E0
5.299037750E0,-1.361264841E0,3.219343622E0,1.093996945E0,3.662518892E0
5.309027750E0,-2.215156400E0,3.706104444E0,1.770489976E0,4.666557916E0
5.319017750E0,-3.289516934E0,3.576854081E0,1.783041609E0,5.176296374E0
5.329007750E0,-3.616825647E0,4.264619958E0,1.832006924E0,5.884272302E0
5.338996750E0,-3.702320126E0,4.437819749E0,1.351104426E0,5.935225489E0
5.348989417E0,-4.050383239E0,2.933145804E0,3.215173388E-1,5.011219622E0
5.358979417E0,-3.831286899E0,2.430758883E0,6.814695954E-2,4.537840021E0
5.368969417E0,-3.154015020E0,1.800824892E0,5.023120773E-1,3.666483119E0
5.378959417E0,-1.975429622E0,7.595731938E-1,5.823019874E-1,2.195073856E0
5.388949417E0,-9.197227295E-1,5.164956683E-1,2.742402613E-1,1.089892378E0
5.398939417E0,-8.226666972E-2,-1.358004141E-1,-5.218149169E-1,5.454359403E-1
5.408929417E0,4.859752491E-1,-2.990821570E-1,-9.818749774E-1,1.135649836E0
5.418918417E0,9.361162756E-1,-5.418632287E-1,-1.367953763E0,1.743911390E0
5.428908417E0,1.212074887E0,-1.549173009E-1,-1.012854695E0,1.587135639E0
5.438898417E0,1.668091781E0,2.527295244E-1,-2.051228979E0,2.655925964E0
5.448888417E0,6.640755907E-1,2.447317028E-1,-2.885341308E0,2.970872677E0
5.458878417E0,6.540362138E-1,1.742173226E0,-1.840008838E0,2.616976011E0
5.468868417E0,1.005908057E0,4.002945364E-1,-1.163028735E0,1.588937561E0
5.478858417E0,8.299356633E-1,-3.186089337E-1,-1.353202407E0,1.619092836E0
5.488848417E0,8.024218825E-1,-7.042216963E-1,-1.213954475E0,1.616630614E0
5.498837417E0,6.419538197E-1,-8.581350303E-1,-5.815289855E-1,1.219293401E0
5.508827417E0,6.512193176E-1,-8.623678297E-1,6.911291957E-2,1.082839540E0
5.518817417E0,4.656374636E-1,-8.407986206E-1,2.859633440E-1,1.002763981E0
5.528807417E0,3.144255432E-1,-1.103646167E0,-1.098750293E-2,1.147614486E0
5.538797417E0,-6.199831992E-2,-7.603935581E-1,3.588529436E-1,8.430999882E-1
5.548787417E0,-1.232347476E-1,-1.464640397E0,4.128531496E-1,1.526697750E0
5.558777417E0,-3.404640716E-1,-1.154018176E0,1.003520200E0,1.566756690E0
5.568767417E0,2.081839737E-1,-8.835686642E-1,1.100816041E0,1.426825185E0
5.578756417E0,9.592933229E-1,-1.833574562E0,1.313088754E0,2.450804241E0
5.588746417E0,1.392346300E0,-1.699265773E0,1.466733554E0,2.641484375E0
5.598736417E0,1.268846381E0,-8.998566681E-1,1.415190933E0,2.102968982E0
5.608726417E0,6.656961465E-1,2.457426864E-1,1.370773144E0,1.543554288E0
5.618716417E0,3.370414039E-1,6.333008176E-1,9.514033824E-1,1.191568391E0
5.628706417E0,2.738721791E-1,1.678162587E-1,2.381499307E-1,3.998545444E-1
5.638696417E0,3.131432489E-1,5.725289512E-1,9.690707445E-2,6.597265155E-1
5.648686417E0,2.285901716E-1,1.327406831E0,1.057077187E-1,1.351087148E0
5.658675417E0,-4.598104209E-2,1.658311874E0,3.119942710E-2,1.659242578E0
5.668665417E0,-2.212086466E-1,2.182886056E0,-9.494007111E-2,2.196118944E0
5.678655417E0,-2.046645346E-1,2.271826299E0,-1.328977101E-1,2.284894769E0
5.688645417E0,-2.731360146E-1,1.836042087E0,-1.502974159E-1,1.862321976E0
5.698635417E0,-3.822824809E-1,1.179619040E0,6.839546621E-2,1.241901330E0
5.708625417E0,-5.782115677E-1,1.080270168E0,1.908466139E-1,1.240054307E0
5.718615417E0,-4.761066109E-1,8.496168065E-1,5.093801916E-2,9.752542769E-1
5.728605417E0,1.292100173E-1,8.285837871E-1,-9.388418090E-1,1.258836869E0
5.738594417E0,3.248901589E-1,5.198940700E-1,-1.660648860E0,1.770197191E0
5.748584417E0,-2.696034193E-2,-3.198988295E-1,-2.789798681E-1,4.253138699E-1
5.758574417E0,1.110694693E-1,-3.177868152E-1,1.296611300E0,1.339599101E0
5.768564417E0,7.078776678E-1,-7.933087045E-1,1.711042065E0,2.014471256E0
5.778554417E0,1.179657924E0,-1.283265030E0,1.397879228E0,2.234374251E0
5.788544417E0,1.236958737E0,-1.506332799E0,1.303198042E0,2.344660009E0
5.798534417E0,1.090686983E0,-1.708483908E0,1.377942415E0,2.450967290E0
5.808524417E0,6.191188346E-1,-1.529094256E0,7.959655331E-1,1.831665500E0
5.818513417E0,1.342343836E-1,-1.199417127E0,5.291089895E-1,1.317792335E0
5.828503417E0,1.701441814E-1,-1.149749708E0,2.757656537E-1,1.194537622E0
5.838493417E0,7.939345028E-1,-1.297312381E0,-1.989500508E-1,1.533927160E0
5.848483417E0,1.010358080E0,-1.705697125E0,-1.999601573E-1,1.992538632E0
5.858473417E0,5.799718720E-1,-1.979896456E0,-2.813838047E-1,2.082194562E0
5.868463417E0,-9.802067667E-2,-1.918500692E0,2.469717711E-1,1.936813882E0
5.878453417E0,-5.727662019E-1,-6.114310616E-1,3.002660720E-1,8.899824601E-1
5.888443417E0,-2.637820045E-1,-1.867524666E-1,-1.399463823E-1,3.521965639E-1
5.898432417E0,3.970281355E-2,-6.159918898E-1,-7.129919350E-2,6.213742003E-1
5.908422417E0,1.869248863E-1,-5.250244170E-1,-1.329153979E-1,5.729380897E-1
5.918412417E0,3.930615306E-1,-7.728715163E-1,-2.725406219E-1,9.089038113E-1
5.928402417E0,2.432558656E-1,-1.725069535E0,1.733867548E-1,1.750743066E0
5.938392417E0,-1.467052520E-1,-1.725784650E0,4.081113866E-1,1.779440921E0
5.948382417E0,-3.468212376E-1,-1.581410463E0,-3.623373359E-2,1.619400169E0
5.958372417E0,-2.873661641E-1,-1.786630776E0,-1.274193075E-1,1.814074012E0
5.968362417E0,-2.762224674E-1,-2.067860799E0,-8.208379805E-2,2.087842160E0
5.978351417E0,-3.711830038E-1,-1.792448171E0,-2.735042430E-1,1.850797622E0
5.988341417E0,-2.969756976E-1,-1.355078779E0,-2.892424625E-1,1.417072427E0
5.998331417E0,-2.415601730E-2,-1.032125949E0,-4.006295818E-1,1.107416610E0
6.008321417E0,5.065752091E-1,-9.605677235E-1,-3.822162612E-1,1.151259338E0
6.018311417E0,8.111718021E-1,-8.826220000E-1,-1.640303327E-1,1.209928608E0
6.028301417E0,9.220332567E-1,-4.655535561E-1,-3.210093619E-1,1.081634157E0
6.038291417E0,8.077171940E-1,3.257413673E-1,-1.173666282E-1,8.787999939E-1
6.048281417E0,5.057988451E-1,2.912661839E-1,2.836044310E-1,6.489221331E-1
6.058270417E0,2.351149334E-1,-1.879166472E-1,9.567682028E-2,3.158255090E-1
6.068260417E0,-4.822622672E-2,-6.466143429E-1,-2.425571233E-2,6.488637893E-1
6.078250417E0,-2.043325590E-1,-5.078429586E-1,-9.614722878E-2,5.557882284E-1
6.088240417E0,-8.124092191E-2,-2.466589451E-2,-4.571996391E-2,9.643033156E-2
6.098230417E0,-7.318601690E-2,2.044859022E-1,2.899257097E-1,3.622534947E-1
6.108220417E0,-2.297977678E-1,1.046897185E-1,2.750448382E-1,3.733853429E-1
6.118210417E0,-2.443388430E-1,1.335539138E-1,-4.175979093E-2,2.815705919E-1
6.128200417E0,-2.272358834E-1,2.457882947E-1,4.693676949E-2,3.380104922E-1
6.138189417E0,-1.780229390E-1,6.584935462E-1,-9.978273511E-3,6.822063348E-1
6.148179417E0,-8.901669547E-2,1.040995005E0,-3.305694133E-2,1.045316858E0
6.158169417E0,-5.026507773E-2,1.173477709E0,-5.043515861E-3,1.174564579E0
6.168159417E0,-1.257062195E-1,9.021897072E-1,5.369644314E-2,9.124865091E-1
6.178149417E0,-2.394683682E-1,3.909910315E-1,-6.416675985E-2,4.629648574E-1
6.188139417E0,-3.221090404E-1,2.690783393E-1,-6.127882004E-3,4.197558071E-1
6.198129417E0,-3.223887566E-1,3.806905764E-1,-1.200667262E-2,4.990029915E-1
6.208119417E0,-2.648361113E-1,1.592606127E-1,1.021435484E-1,3.254772083E-1
6.218108417E0,-2.999364718E-1,-6.888721704E-2,1.033600616E-1,3.246392430E-1
6.228098417E0,-2.498435215E-1,-1.523930579E-1,6.550021738E-2,2.998928272E-1
6.238088417E0,-2.254625325E-1,-2.511519456E-1,8.596313328E-2,3.482819456E-1
6.248078417E0,-1.797393892E-1,-2.138402778E-1,-3.912985951E-2,2.820727891E-1
6.258068417E0,-1.993410468E-1,-8.226213813E-2,-4.798780650E-2,2.209224793E-1
6.268058417E0,-2.442213505E-1,3.798351288E-2,-4.517412633E-2,2.512518995E-1
6.278048417E0,-2.884611649E-1,-3.990315378E-2,-5.518309772E-2,2.963904175E-1
6.288038417E0,-2.441610511E-1,-1.685378051E-1,6.889935002E-2,3.045763140E-1
6.298027417E0,-1.787760604E-1,-2.805657792E-1,8.753428012E-2,3.440062302E-1
6.308017417E0,-2.695217776E-1,-4.979319280E-1,5.705771506E-2,5.690639475E-1
6.318007417E0,-4.663302125E-1,-6.984680361E-1,3.265669942E-1,9.010923738E-1
6.327997417E0,-5.014441678E-1,-7.354528445E-1,5.919444846E-1,1.068988032E0
6.337987417E0,-4.122880893E-1,-7.761646682E-1,8.217583323E-1,1.203203980E0
6.347978625E0,-3.585509714E-1,-9.446369845E-1,6.691489273E-1,1.211882056E0
6.357968625E0,-1.407767601E-1,-1.583291513E0,4.510892987E-1,1.652304955E0
6.367958625E0,5.097518187E-1,-1.795602744E0,3.055205262E-1,1.891396024E0
6.377947625E0,6.204597473E-1,-1.353993536E0,1.868295036E-1,1.501057646E0
6.387937625E0,1.562046386E-1,-2.397235626E-1,-3.864483297E-1,4.808425804E-1
6.397927625E0,3.593735285E-2,3.732839084E-1,-8.504248186E-1,9.294378633E-1
6.407917625E0,-2.365231622E-1,1.285060710E0,-4.507191700E-1,1.382198251E0
6.417907625E0,-3.643665390E-1,1.907497401E0,1.842755860E-1,1.950709307E0
6.427897625E0,-3.569982433E-1,1.762438506E0,7.846238351E-1,1.961956115E0
6.437887625E0,-2.531109821E-1,2.027529044E0,2.836893618E-1,2.062866658E0
6.447877625E0,-1.240019023E-1,2.129177626E0,-4.594332755E-1,2.181708681E0
6.457866625E0,-8.581421200E-2,1.758536659E0,-9.056799102E-1,1.979917008E0
6.467856625E0,-8.950577851E-2,1.146380543E0,-1.057576540E0,1.562263668E0
6.477846625E0,-1.749828985E-1,6.641402024E-1,-8.891393065E-1,1.123507868E0
6.487836625E0,-4.863650757E-1,3.005585790E-1,-5.074085104E-1,7.644277878E-1
6.497826625E0,-8.572896691E-1,-4.771971166E-2,-3.553352952E-2,8.593517204E-1
6.507816625E0,-1.116732674E0,-2.347037280E-1,3.606936836E-1,1.196778024E0
6.517806625E0,-1.322468272E0,-3.344314992E-1,4.095647120E-1,1.424257706E0
6.527796625E0,-1.453124306E0,-4.027766794E-1,6.121567011E-2,1.509154287E0
6.537785625E0,-1.402576881E0,-4.636725068E-1,-4.580170798E-1,1.546607173E0
6.547775625E0,-9.885231154E-1,-5.123184174E-1,-8.565059960E-1,1.404724397E0
6.557765625E0,-3.969984243E-1,-5.052409476E-1,-9.430307543E-1,1.141132406E0
6.567755625E0,2.383767296E-2,-5.304354304E-1,-8.094499433E-1,9.680594978E-1
6.577745625E0,2.398656134E-1,-4.790506840E-1,-6.179512918E-1,8.178562645E-1
6.587735625E0,2.931744592E-1,-3.630033338E-1,-4.704061604E-1,6.625742521E-1
6.597725625E0,2.523886317E-1,-2.250909054E-1,-3.504598868E-1,4.870195780E-1
6.607714625E0,1.325427475E-1,-6.786395431E-2,-2.347540140E-1,2.779973800E-1
6.617704625E0,-4.661944840E-2,7.452919543E-2,-1.399870205E-1,1.653007557E-1
6.627694625E0,-2.240127520E-1,2.020850354E-1,-7.108577013E-2,3.099568701E-1
6.637684625E0,-3.538502486E-1,2.895313150E-1,2.294447422E-3,4.572129102E-1
6.647674625E0,-4.692481558E-1,3.873441231E-1,4.149301171E-2,6.098778333E-1
6.657664625E0,-5.187279890E-1,4.130724567E-1,1.051142446E-1,6.713840820E-1
6.667654625E0,-5.596493258E-1,3.855841112E-1,1.784605666E-1,7.026596961E-1
6.677644625E0,-5.438094379E-1,3.056462413E-1,2.266848564E-1,6.637276201E-1
6.687633625E0,-4.884264385E-1,1.664860171E-1,2.494200003E-1,5.731390025E-1
6.697623625E0,-4.113648139E-1,2.569383502E-2,2.488083633E-1,4.814424004E-1
6.707613625E0,-3.312548166E-1,-1.062684667E-1,2.496117707E-1,4.281690982E-1
6.717603625E0,-2.444060129E-1,-1.839031184E-1,1.943134646E-1,3.623704991E-1
6.727593625E0,-1.674811767E-1,-2.154558635E-1,1.221565211E-1,2.989872728E-1
6.737583625E0,-8.453495085E-2,-2.208294547E-1,5.927790284E-2,2.437738208E-1
6.747573625E0,-1.959575554E-2,-1.754620779E-1,-1.095884244E-2,1.768927094E-1
6.757563625E0,4.961939894E-2,-1.001581264E-1,-5.788975557E-2,1.258767605E-1
6.767552625E0,1.322691892E-1,-6.543735981E-2,-6.022865097E-2,1.593884465E-1
6.777542625E0,2.020127310E-1,-5.905044615E-2,-2.911795537E-2,2.124710662E-1
6.787532625E0,2.857414421E-1,-1.194849283E-1,7.489132080E-3,3.098078549E-1
6.797522625E0,3.463938792E-1,-1.799930853E-1,5.609117031E-2,3.943760257E-1
6.807512625E0,3.879917023E-1,-2.387903470E-1,1.026420418E-1,4.670051173E-1
6.817502625E0,4.083911759E-1,-3.096363813E-1,1.263630080E-1,5.278500269E-1
6.827492625E0,4.313966439E-1,-3.814472061E-1,1.387836635E-1,5.923393796E-1
6.837482625E0,4.576333563E-1,-4.356678522E-1,1.455219766E-1,6.483914033E-1
6.847471625E0,4.675917127E-1,-4.604682326E-1,1.325727328E-1,6.695136537E-1
6.857461625E0,4.585903993E-1,-4.163258475E-1,1.013392639E-1,6.276161343E-1
6.867451625E0,4.515255741E-1,-3.268897605E-1,9.249127546E-2,5.650547722E-1
6.877441625E0,4.526588376E-1,-2.557624751E-1,7.913387775E-2,5.259055405E-1
6.887431625E0,4.501160662E-1,-1.962079990E-1,9.706145922E-2,5.005227056E-1
6.897421625E0,5.008320739E-1,-1.440332937E-1,6.869661609E-2,5.256401631E-1
6.907411625E0,5.471820022E-1,-8.486999631E-2,2.191772142E-2,5.541583224E-1
6.917401625E0,5.836646079E-1,-1.675812006E-2,-1.430459183E-2,5.840803288E-1
6.927390625E0,5.720816757E-1,2.169843256E-2,-7.179792445E-2,5.769776492E-1
6.937380625E0,5.195839483E-1,2.259188712E-2,-7.680781882E-2,5.257160010E-1
6.947370625E0,3.441094817E-1,-3.589079440E-2,-7.380710084E-2,3.537611802E-1
6.957360625E0,1.423675133E-1,-8.596342564E-2,-8.938291389E-2,1.888055208E-1
6.967350625E0,-5.051446147E-2,-1.055106676E-1,-9.112304527E-2,1.482822348E-1
6.977340625E0,-2.114377300E-1,-8.018111408E-2,-6.870248158E-2,2.363365306E-1
6.987330625E0,-3.406665680E-1,-5.245186329E-2,3.212343335E-2,3.461745564E-1
6.997320625E0,-4.192300864E-1,-1.106117785E-2,1.070684389E-1,4.328277552E-1
7.007309625E0,-4.095119044E-1,3.636617303E-2,1.619609300E-1,4.418753684E-1
7.017299625E0,-4.000569567E-1,9.029036522E-2,2.106599772E-1,4.610591552E-1
7.027289625E0,-3.762392373E-1,1.300584483E-1,2.638462142E-1,4.775834885E-1
7.037279625E0,-3.147283925E-1,1.944263524E-1,3.117197077E-1,4.837610398E-1
7.047269625E0,-2.541965725E-1,2.528797978E-1,3.856133107E-1,5.265564690E-1
7.057259625E0,-1.481195930E-1,2.805839056E-1,4.349112590E-1,5.383442626E-1
7.067249625E0,-4.390566882E-2,3.226142764E-1,4.524329889E-1,5.574076502E-1
7.077239625E0,7.829620929E-2,3.404909688E-1,4.405315661E-1,5.622565758E-1
7.087228625E0,1.516672723E-1,2.786613411E-1,4.038484375E-1,5.135646648E-1
7.097218625E0,1.979503231E-1,1.911472338E-1,3.515077078E-1,4.464070610E-1
7.107208625E0,1.621691640E-1,1.038143903E-1,2.801284075E-1,3.399238004E-1
7.117198625E0,1.128580138E-1,4.657307267E-3,2.018376982E-1,2.312943540E-1
7.127188625E0,5.556966263E-2,-6.323822200E-2,1.125144625E-1,1.405224693E-1
7.137178625E0,1.374433720E-2,-1.584080887E-1,1.116233468E-2,1.593945642E-1
7.147168625E0,-2.199312310E-2,-2.259358281E-1,-3.657312792E-2,2.299310539E-1
7.157158625E0,-2.838259491E-2,-2.536937302E-1,-7.409354132E-2,2.658118382E-1
7.167147625E0,-2.830690088E-2,-2.395972627E-1,-8.985412639E-2,2.574527005E-1
7.177137625E0,-5.708380826E-3,-2.004068846E-1,-7.952914953E-2,2.156858609E-1
7.187127625E0,3.517273804E-2,-9.719651163E-2,-7.034079831E-2,1.250284419E-1
7.197117625E0,1.038805004E-1,3.575572371E-3,-4.209406894E-2,1.121421139E-1
7.207107625E0,1.349379589E-1,5.897092402E-2,-4.760327898E-2,1.547639971E-1
7.217097625E0,1.456251160E-1,6.975202024E-2,-1.796377938E-2,1.624645072E-1
7.227087625E0,1.573219136E-1,3.563234746E-2,-7.623599768E-3,1.614867423E-1
7.237077625E0,1.405368872E-1,2.771931052E-2,-3.461551666E-2,1.473676044E-1
7.247066625E0,6.415945997E-2,7.688503861E-3,-7.945200283E-2,1.024117676E-1
7.257056625E0,-8.773139524E-3,1.640904129E-2,-1.167139328E-1,1.181878450E-1
7.267046625E0,-7.855046268E-2,4.354655385E-2,-1.558516129E-1,1.798782999E-1
7.277036625E0,-1.702639762E-1,2.262287736E-2,-1.975692308E-1,2.617923168E-1
7.287026625E0,-2.557461029E-1,-5.214546919E-3,-2.127252138E-1,3.326939693E-1
7.297016625E0,-3.303573786E-1,-4.385411739E-4,-2.266427199E-1,4.006283969E-1
7.307006625E0,-3.804566513E-1,-1.199673235E-2,-2.143565504E-1,4.368522814E-1
7.316996625E0,-4.151990160E-1,1.641079545E-2,-1.805934847E-1,4.530712348E-1
7.326985625E0,-4.140195960E-1,5.560935974E-2,-1.396303403E-1,4.404557398E-1
7.336975625E0,-3.775145151E-1,1.231254047E-1,-6.911054414E-2,4.030550107E-1
7.346965625E0,-3.262859624E-1,1.935305589E-1,-4.033175468E-2,3.815013197E-1
7.356950875E0,-2.402406026E-1,2.289670247E-1,-1.313284636E-2,3.321353899E-1
7.366940875E0,-1.727046406E-1,2.297452891E-1,2.888524532E-4,2.874193351E-1
7.376930875E0,-8.161153489E-2,2.581458002E-1,5.629735775E-3,2.707976934E-1
7.386920875E0,-2.405661007E-2,2.324426097E-1,-5.050751790E-3,2.337387374E-1
7.396910875E0,4.412599465E-2,2.000659919E-1,-6.299753599E-3,2.049711965E-1
7.406899875E0,9.032767776E-2,1.627964240E-1,-4.763105325E-3,1.862376230E-1
7.416889875E0,1.589260606E-1,1.018824703E-1,4.327988427E-2,1.936767381E-1
7.426879875E0,2.897490689E-1,2.344616532E-2,1.012433696E-1,3.078221329E-1
7.436869875E0,3.892276575E-1,-7.928824425E-4,4.236892462E-2,3.915276794E-1
7.446859875E0,4.664930940E-1,-6.457080245E-3,-3.263451654E-2,4.676777868E-1
7.456849875E0,5.840976673E-1,1.016596913E-2,7.180380821E-3,5.842302541E-1
7.466839875E0,6.884269050E-1,4.297703505E-3,4.295364618E-2,6.897790150E-1
7.476829875E0,7.020887051E-1,2.144173980E-3,-3.407991171E-2,7.029186209E-1
7.486818875E0,6.960294548E-1,-3.476169705E-3,-9.289939284E-2,7.022103551E-1
7.496808875E0,7.024374915E-1,-2.530265629E-2,-1.130944971E-1,7.119332968E-1
7.506798875E0,6.918343699E-1,-1.904028833E-2,-8.983661215E-2,6.979025325E-1
7.516788875E0,6.836570388E-1,-4.681222379E-2,-4.322261810E-2,6.866196369E-1
7.526778875E0,6.866374377E-1,-4.664265454E-2,-2.118563175E-2,6.885458148E-1
7.536768875E0,7.135434005E-1,-6.552974582E-3,2.115054846E-2,7.138868759E-1
7.546758875E0,7.092158031E-1,4.786004484E-2,5.529945731E-2,7.129766261E-1
7.556748875E0,6.628042598E-1,9.279297352E-2,8.528865695E-2,6.746807969E-1
7.566737875E0,5.820144506E-1,9.800635099E-2,7.181550264E-2,5.945616301E-1
7.576727875E0,4.692732258E-1,1.079548037E-1,5.282550037E-2,4.844193778E-1
7.586717875E0,3.253982820E-1,9.090081453E-2,8.733986020E-3,3.379693514E-1
7.596707875E0,1.487516130E-1,6.136126578E-2,-3.234271307E-2,1.641289079E-1
7.606697875E0,3.011198203E-2,2.847126245E-2,-2.015241961E-2,4.608106188E-2
7.616687875E0,-2.221667860E-4,-1.986883879E-2,3.829107642E-2,4.313961806E-2
7.626677875E0,9.644144422E-2,-7.074078441E-2,1.409377686E-1,1.848476815E-1
7.636667875E0,3.084912772E-1,-1.456728530E-1,2.342762965E-1,4.138512188E-1
7.646656875E0,5.477695012E-1,-1.520270222E-1,3.917792362E-1,6.904017757E-1
7.656646875E0,7.612685209E-1,-1.723244619E-1,5.359493548E-1,9.468195139E-1
7.666636875E0,9.197500652E-1,-1.986667532E-1,5.195683801E-1,1.074876720E0
7.676626875E0,9.589851746E-1,-1.644587874E-1,4.107897037E-1,1.056147451E0
7.686616875E0,9.388622743E-1,-1.015813386E-1,2.927215558E-1,9.886693318E-1
7.696606875E0,8.391574533E-1,-5.084738731E-3,1.904935151E-1,8.605224374E-1
7.706596875E0,6.955290062E-1,7.623190463E-2,1.359179066E-1,7.127731610E-1
7.716586875E0,5.159841831E-1,9.177614272E-2,9.028038841E-2,5.318017357E-1
7.726575875E0,3.223952982E-1,1.299251318E-3,4.608654778E-2,3.256752773E-1
7.736565875E0,1.895168839E-1,-1.312267220E-1,4.942179959E-2,2.357532951E-1
7.746555875E0,4.710219087E-2,-1.773922437E-1,4.160995603E-2,1.881967401E-1
7.756545875E0,1.409740853E-2,-1.898047131E-1,1.979569012E-1,2.746115452E-1
7.766535875E0,4.723569925E-2,-1.845913357E-1,4.220713582E-1,4.630868211E-1
7.776525875E0,1.170581510E-2,-1.522796220E-1,3.926259496E-1,4.212852307E-1
7.786515875E0,3.400422681E-2,-5.327924430E-2,3.409312276E-1,3.467406340E-1
7.796505875E0,1.405560094E-1,1.016170067E-1,3.492506826E-1,3.899462105E-1
7.806494875E0,3.857515243E-1,3.162934363E-1,4.905053794E-1,6.996008173E-1
7.816484875E0,6.288284285E-1,4.404298246E-1,5.043427787E-1,9.185669608E-1
7.826474875E0,7.652020890E-1,4.971969330E-1,3.993472874E-1,9.961010407E-1
7.836464875E0,8.500738395E-1,4.925682771E-1,3.000989513E-1,1.027282055E0
7.846454875E0,8.566187011E-1,4.347919393E-1,2.953767399E-1,1.005030869E0
7.856444875E0,8.023544933E-1,3.426351428E-1,2.999399070E-1,9.225700634E-1
7.866434875E0,7.476222890E-1,2.604542810E-1,2.534474894E-1,8.312708038E-1
7.876424875E0,6.967731475E-1,1.509862179E-1,2.015540352E-1,7.408870941E-1
7.886413875E0,6.910174408E-1,9.358994901E-2,9.274031203E-2,7.034663798E-1
7.896403875E0,7.095132802E-1,1.366634631E-1,5.124499798E-3,7.225733579E-1
7.906393875E0,7.545303357E-1,1.829418361E-1,-6.409710489E-2,7.790328503E-1
7.916383875E0,8.507725818E-1,2.270450449E-1,-8.846596085E-2,8.849800362E-1
7.926373875E0,9.295996269E-1,2.200488514E-1,-6.099639952E-2,9.572343099E-1
7.936363875E0,9.795731478E-1,2.219743395E-1,7.092160955E-3,1.004433402E0
7.946353875E0,1.011794303E0,2.287331361E-1,1.271383488E-1,1.045088857E0
7.956343875E0,1.040846267E0,2.650297272E-1,2.244045154E-1,1.097250698E0
7.966332875E0,1.081379531E0,3.095135897E-1,2.978372848E-1,1.163566672E0
7.976322875E0,1.174100072E0,4.069703025E-1,4.079630866E-1,1.307887490E0
7.986312875E0,1.288047468E0,4.644203657E-1,5.509814499E-1,1.475917719E0
7.996302875E0,1.435721531E0,5.518298078E-1,6.367740637E-1,1.664720294E0
8.006292875E0,1.513788730E0,6.644214535E-1,7.143421302E-1,1.800915563E0
8.016282875E0,1.547576281E0,7.625576127E-1,7.922650496E-1,1.898465266E0
8.026272875E0,1.540920395E0,8.545191121E-1,8.516522223E-1,1.957025827E0
8.036262875E0,1.481831650E0,9.890676373E-1,8.929739106E-1,1.992857806E0
8.046251875E0,1.431431867E0,1.087676252E0,8.909770133E-1,2.006458785E0
8.056241875E0,1.422142542E0,1.192902160E0,9.187840321E-1,2.071151629E0
8.066231875E0,1.427712161E0,1.218742760E0,9.443744445E-1,2.101318400E0
8.076221875E0,1.522023510E0,1.229464214E0,9.407386458E-1,2.170973749E0
8.086211875E0,1.670812198E0,1.235896736E0,9.030825770E-1,2.265968289E0
8.096201875E0,1.817669551E0,1.228570760E0,8.399641498E-1,2.349222953E0
8.106191875E0,1.922560706E0,1.262274696E0,7.122581095E-1,2.407672878E0
8.116181875E0,1.961621422E0,1.281216166E0,5.995465958E-1,2.418456034E0
8.126170875E0,1.959669037E0,1.277054703E0,5.495669353E-1,2.402747441E0
8.136160875E0,1.911264324E0,1.354079490E0,5.685740407E-1,2.410340022E0
8.146150875E0,1.909467767E0,1.438700979E0,5.412106794E-1,2.451292855E0
8.156140875E0,1.921751159E0,1.542482041E0,4.657405939E-1,2.507846220E0
8.166130875E0,1.992214785E0,1.632330941E0,3.908454359E-1,2.605030558E0
8.176120875E0,2.179937743E0,1.592377501E0,3.789462789E-1,2.726058501E0
8.186110875E0,2.455694334E0,1.439946436E0,4.331242403E-1,2.879492491E0
8.196100875E0,2.737181342E0,1.142269365E0,5.573986959E-1,3.017885735E0
8.206089875E0,2.951135933E0,7.323397869E-1,7.799969333E-1,3.139095423E0
8.216079875E0,3.166495610E0,3.882913721E-1,1.041235911E0,3.355836238E0
8.226069875E0,3.354558145E0,1.003621942E-1,1.165450213E0,3.552661976E0
8.236059875E0,3.610046678E0,-3.146883756E-1,1.309181206E0,3.852975632E0
8.246049875E0,4.004196375E0,-1.176297821E0,1.851776944E0,4.565779564E0
8.256039875E0,4.337732373E0,-2.875658319E0,2.691541777E0,5.859157794E0
8.266029875E0,4.466179622E0,-4.895738595E0,2.589831800E0,7.114931170E0
8.276019875E0,3.932282347E0,-6.567008484E0,-7.440283710E-1,7.690385108E0
8.286008875E0,2.177147452E0,-7.231257445E0,-7.280493339E0,1.048983501E1
8.295998875E0,3.460685547E-1,-6.533049610E0,-8.962388204E0,1.109616614E1
8.305988875E0,2.800553356E-1,-4.666367528E0,-3.518061497E0,5.850655826E0
8.315978875E0,1.371213293E0,-2.784800774E0,1.499851307E0,3.447447634E0
8.325968875E0,2.245893897E0,-1.056311787E0,3.626416250E0,4.394397434E0
8.335958875E0,2.420693632E0,1.725513339E-3,3.314573715E0,4.104407332E0
8.345948875E0,2.517749079E0,-5.126253963E-1,1.740337054E0,3.103323748E0
8.355939125E0,1.936356042E0,-1.669685293E0,-6.543964022E-1,2.639234425E0
8.365928125E0,3.216601204E-1,-1.753601024E0,-1.868332751E0,2.582488926E0
8.375918125E0,-1.107024250E0,-1.190345757E0,-1.522971636E0,2.227525155E0
8.385908125E0,-2.363229097E0,-1.412652803E0,-1.437161261E0,3.105780449E0
8.395898125E0,-3.417957165E0,-2.264474595E0,-1.642341959E0,4.416736746E0
8.405888125E0,-3.992531472E0,-2.984352795E0,-1.409669554E0,5.180138745E0
8.415878125E0,-3.989166400E0,-3.166626295E0,-6.836797699E-1,5.138909289E0
8.425868125E0,-3.446483976E0,-2.849054072E0,2.030270219E-1,4.476223953E0
8.435858125E0,-2.956153429E0,-2.120059478E0,7.820130533E-1,3.720892325E0
8.445847125E0,-2.679759638E0,-9.977051443E-1,1.050724187E0,3.046399283E0
8.455837125E0,-2.613111904E0,1.595512193E-1,1.139084387E0,2.855052304E0
8.465827125E0,-2.758672491E0,1.033785973E0,1.227942769E0,3.191681499E0
8.475817125E0,-3.007303409E0,1.484344929E0,1.288684815E0,3.592751344E0
8.485807125E0,-3.196881835E0,1.730752444E0,1.442147913E0,3.910926756E0
8.495797125E0,-3.366209307E0,1.705242212E0,1.545911433E0,4.077874232E0
8.505787125E0,-3.546757877E0,1.501960836E0,1.548726282E0,4.151376987E0
8.515777125E0,-3.746792294E0,1.228800555E0,1.568789248E0,4.243760480E0
8.525766125E0,-3.991126387E0,9.594783872E-1,1.484084144E0,4.364881940E0
8.535756125E0,-4.128147699E0,8.110269374E-1,1.464320555E0,4.454615899E0
8.545746125E0,-4.210157238E0,7.187514424E-1,1.446169628E0,4.509260937E0
8.555736125E0,-4.195680993E0,6.594115591E-1,1.377291766E0,4.464918276E0
8.565726125E0,-4.013450179E0,7.166908836E-1,1.314057637E0,4.283477050E0
8.575716125E0,-3.361685316E0,9.124182415E-1,1.009684335E0,3.626692387E0
8.585706125E0,-2.217672603E0,1.210979412E0,6.606406438E-1,2.611702313E0
8.595696125E0,-1.355010074E0,1.409611081E0,5.275533378E-1,2.025183504E0
8.605685125E0,-6.756679881E-1,1.485966362E0,3.821365929E-1,1.676499817E0
8.615675125E0,4.032473803E-2,1.413098946E0,4.942298731E-2,1.414537856E0
8.625665125E0,6.680683619E-1,1.225931327E0,-3.383397782E-1,1.436557259E0
8.635655125E0,1.185101682E0,1.043530358E0,-6.264683461E-1,1.698789037E0
8.645645125E0,1.583982654E0,9.335471553E-1,-7.726054680E-1,1.994349655E0
8.655635125E0,1.863464067E0,9.294336390E-1,-7.114295590E-1,2.200562936E0
8.665625125E0,1.998761913E0,9.723247200E-1,-3.694621682E-1,2.253212559E0
8.675615125E0,2.049387983E0,1.041113119E0,1.693996847E-1,2.304908650E0
8.685604125E0,2.107725653E0,1.013288559E0,6.913268316E-1,2.438686926E0
8.695594125E0,2.174458756E0,9.595713580E-1,1.085696969E0,2.613003249E0
8.705584125E0,2.241660806E0,1.000195473E0,1.205391812E0,2.734666995E0
8.715574125E0,2.301410579E0,1.167266212E0,1.055053978E0,2.787855799E0
8.725564125E0,2.281453447E0,1.347011375E0,7.610512968E-1,2.756568257E0
8.735554125E0,2.120010069E0,1.584180290E0,3.577477833E-1,2.670590451E0
8.745544125E0,1.835831295E0,1.859956614E0,1.566819906E-2,2.613419339E0
8.755534125E0,1.428108456E0,1.983372041E0,-4.527389444E-2,2.444444342E0
8.765523125E0,1.023803022E0,1.940825946E0,2.760998221E-1,2.211607807E0
8.775513125E0,7.321485829E-1,1.764314293E0,9.020102707E-1,2.112455680E0
8.785503125E0,5.959452957E-1,1.510355099E0,1.596542473E0,2.277119054E0
8.795493125E0,6.465123090E-1,1.220041426E0,2.170834798E0,2.572742305E0
8.805483125E0,7.850056583E-1,9.319882876E-1,2.527747818E0,2.806126349E0
8.815473125E0,1.009294618E0,6.360069090E-1,2.594339418E0,2.855481996E0
8.825463125E0,1.315439335E0,3.682032627E-1,2.468471085E0,2.821223809E0
8.835453125E0,1.574725927E0,1.617164433E-1,2.301910954E0,2.793690748E0
8.845442125E0,1.724764018E0,4.165322542E-2,2.196995387E0,2.793444941E0
8.855432125E0,1.781481718E0,-6.597238004E-2,2.175821304E0,2.812868253E0
8.865422125E0,1.735865834E0,-2.221643740E-1,2.332627401E0,2.916116904E0
8.875412125E0,1.574413685E0,-3.309336948E-1,2.686463470E0,3.131354586E0
8.885402125E0,1.261360483E0,-3.836720717E-1,3.052183421E0,3.324764377E0
8.895392125E0,9.572084981E-1,-4.750476801E-1,3.412947271E0,3.576328771E0
8.905382125E0,7.744204438E-1,-5.435799712E-1,3.855018994E0,3.969430394E0
8.915372125E0,6.515233728E-1,-4.952720296E-1,4.445669928E0,4.520371467E0
8.925361125E0,4.736066338E-1,-6.174846840E-1,5.149658613E0,5.208125805E0
8.935351125E0,2.882700706E-1,-8.302356255E-1,5.807660408E0,5.873781596E0
8.945341125E0,6.320723176E-2,-1.134868544E0,6.243125947E0,6.345750023E0
8.955331125E0,-1.792268077E-1,-1.657109102E0,6.340884376E0,6.556290681E0
8.965321125E0,-9.456906527E-2,-2.412153043E0,5.912951220E0,6.386737645E0
8.975311125E0,6.274281666E-1,-3.316031426E0,4.972437108E0,6.009564153E0
8.985301125E0,1.579570052E0,-3.886321478E0,3.624793063E0,5.544155565E0
8.995291125E0,2.368776058E0,-4.122509814E0,2.232628319E0,5.252696107E0
9.005280125E0,2.905483797E0,-4.302101195E0,1.139979011E0,5.315022383E0
9.015270125E0,3.092583295E0,-4.117598153E0,4.219409287E-1,5.166886890E0
9.025260125E0,2.727643948E0,-3.236654888E0,2.466390646E-1,4.239906509E0
9.035250125E0,1.815817738E0,-2.049349099E0,5.407272609E-1,2.790951765E0
9.045240125E0,6.024254724E-1,-9.275344634E-1,9.675049333E-1,1.469456507E0
9.055230125E0,-6.146578476E-1,1.278756827E-1,1.013303761E0,1.192032287E0
9.065220125E0,-1.666334254E0,9.913761181E-1,5.834819555E-1,2.024832745E0
9.075210125E0,-2.583582880E0,1.410610955E0,-1.828366593E-1,2.949263130E0
9.085200125E0,-3.495683911E0,1.478665529E0,-1.150213977E0,3.966011843E0
9.095189125E0,-4.413929487E0,1.342287995E0,-1.980295236E0,5.020565685E0
9.105179125E0,-5.203774009E0,1.145278927E0,-2.504399886E0,5.887524653E0
9.115169125E0,-5.500594463E0,8.043067324E-1,-2.782231507E0,6.216450830E0
9.125159125E0,-5.436673286E0,-8.301759839E-2,-2.866103969E0,6.146451033E0
9.135149125E0,-4.870781217E0,-1.628817934E0,-2.692375005E0,5.798830977E0
9.145139125E0,-3.794155326E0,-3.477532691E0,-2.230001750E0,5.609078005E0
9.155129125E0,-2.581519398E0,-5.459523035E0,-1.722055880E0,6.279817723E0
9.165119125E0,-1.335852841E0,-7.159719100E0,-1.962421467E0,7.543021836E0
9.175108125E0,1.401346627E-1,-8.473308375E0,-3.444791207E0,9.147851060E0
9.185098125E0,1.923293070E0,-9.395192674E0,-5.650766748E0,1.113103169E1
9.195088125E0,3.674010832E0,-9.163345896E0,-7.361757358E0,1.231506131E1
9.205078125E0,4.877688240E0,-6.857245558E0,-7.204716348E0,1.107797801E1
9.215068125E0,4.767378178E0,-3.436005181E0,-5.823019289E0,8.272942641E0
9.225058125E0,3.847834227E0,-2.807587373E-1,-4.516979354E0,5.940349838E0
9.235048125E0,2.773819703E0,2.140156943E0,-2.751606131E0,4.454849468E0
9.245038125E0,1.659002723E0,3.201851091E0,-6.434911989E-1,3.663089047E0
9.255027125E0,2.624205534E-1,3.218494021E0,-1.995245397E-1,3.235332804E0
9.265017125E0,-7.049995221E-1,3.281380826E0,6.577408634E-2,3.356904926E0
9.275007125E0,-1.232720675E0,3.443805951E0,1.076235516E0,3.812831308E0
9.284997125E0,-1.765766595E0,4.085119793E0,2.154771473E0,4.944610753E0
9.294987125E0,-2.349975067E0,4.491010115E0,2.325169863E0,5.576555349E0
9.304977125E0,-2.817356901E0,4.840401131E0,2.012697582E0,5.951296882E0
9.314967125E0,-3.103070277E0,5.096889246E0,1.147942845E0,6.076602496E0
9.324957125E0,-3.078664876E0,5.234093576E0,6.295989454E-2,6.072715779E0
9.334946125E0,-2.670260251E0,5.363774294E0,-7.781889743E-1,6.042014777E0
9.344936125E0,-1.988943122E0,5.377957301E0,-1.245031841E0,5.867573924E0
9.354926875E0,-1.101013750E0,5.256908827E0,-1.286193316E0,5.522826716E0
9.364916875E0,-1.851437514E-1,4.867636877E0,-1.143514237E0,5.003577898E0
9.374906875E0,7.325432700E-1,4.369618410E0,-8.448593657E-1,4.510429252E0
9.384896875E0,1.535282656E0,4.046141084E0,-5.013687752E-1,4.356572180E0
9.394886875E0,2.232991870E0,4.068621290E0,-1.668438667E-1,4.644111192E0
9.404876875E0,2.919008406E0,4.397588566E0,2.188682985E-1,5.282735901E0
9.414866875E0,3.616985569E0,4.751951469E0,5.986310680E-1,6.001831931E0
9.424855875E0,4.271532537E0,4.890187833E0,9.561577535E-1,6.563091109E0
9.434845875E0,4.704030613E0,4.645632132E0,1.185330746E0,6.716755980E0
9.444835875E0,5.051326572E0,3.817612016E0,1.423258483E0,6.489663038E0
9.454825875E0,5.102646999E0,2.317494807E0,9.433025768E-1,5.683098479E0
9.464815875E0,5.446423518E0,1.784406495E-1,4.437136209E-1,5.467380724E0
9.474805875E0,5.628261400E0,-2.229490119E0,-1.941706829E-1,6.056868401E0
9.484795875E0,4.988394159E0,-4.417155104E0,-1.499753512E0,6.829684919E0
9.494785875E0,2.416988251E0,-5.902149074E0,-1.610802078E0,6.578136456E0
9.504774875E0,-1.246897542E0,-6.760925544E0,-2.463673152E-1,6.879357858E0
9.514764875E0,-4.327347718E0,-7.719149119E0,7.812688489E-1,8.883781988E0
9.524754875E0,-5.446900066E0,-8.842261251E0,1.872336339E0,1.055272229E1
9.534744875E0,-3.056113919E0,-8.610032065E0,4.439180980E0,1.015769719E1
9.544734875E0,9.383483040E-1,-6.929256942E0,7.181621016E0,1.002351135E1
9.554724875E0,3.444815766E0,-6.019017373E0,7.491589519E0,1.020878246E1
9.564714875E0,5.076626304E0,-6.369931004E0,5.494221582E0,9.825203633E0
9.574704875E0,6.030707712E0,-7.140374172E0,1.492924110E0,9.464840264E0
9.584693875E0,7.089072456E0,-7.558486344E0,-8.198071164E0,1.321340361E1
9.594683875E0,5.011205317E0,-6.530522443E0,-1.141553198E1,1.407388619E1
9.604673875E0,9.036524612E-1,-3.845805536E0,-5.562225870E0,6.822401675E0
9.614663875E0,-1.192818179E0,-1.413330495E0,-5.178177238E-1,1.920534689E0
9.624653875E0,-2.369057748E0,5.103642780E-1,2.492832924E0,3.476653893E0
9.634643875E0,-3.177997083E0,1.908525342E0,2.564771803E0,4.507792014E0
9.644633875E0,-3.931738556E0,2.553594266E0,1.119111468E0,4.819940064E0
9.654623875E0,-4.578193855E0,2.416812104E0,-2.024335295E-1,5.180909095E0
9.664613875E0,-5.620380523E0,1.925817313E0,-9.083251905E-1,6.010200013E0
9.674602875E0,-6.666459682E0,1.875997281E0,-1.202128481E0,7.028951798E0
9.684592875E0,-7.461083425E0,1.546940542E0,-1.375625310E0,7.742941038E0
9.694582875E0,-8.122608168E0,2.118405300E-1,-1.351082207E0,8.236932863E0
9.704572875E0,-8.361393253E0,-1.398832909E0,-9.645058233E-1,8.532285867E0
9.714562875E0,-8.244306267E0,-2.623412359E0,-5.666390143E-1,8.670176354E0
9.724552875E0,-7.821873588E0,-2.781201228E0,-5.796549529E-1,8.321825915E0
9.734542875E0,-6.521867394E0,-1.325656759E0,-1.132170054E0,6.750846553E0
9.744532875E0,-4.506340930E0,6.166339141E-1,-1.429721410E0,4.767750966E0
9.754521875E0,-2.884015744E0,1.158179054E0,-1.096244761E0,3.295554295E0
9.764511875E0,-1.578188501E0,8.127582979E-1,-6.794172227E-1,1.900753208E0
9.774501875E0,-4.306882171E-1,1.175781512E-1,-4.379318575E-1,6.253809030E-1
9.784491875E0,4.668349734E-1,-4.923238635E-1,-3.390823746E-1,7.584817306E-1
9.794481875E0,1.193868997E0,-1.047995877E0,-3.653445590E-1,1.630059872E0
9.804471875E0,1.752751278E0,-1.241367976E0,-4.836863565E-1,2.201609408E0
9.814461875E0,1.996463664E0,-7.654993469E-1,-4.820660931E-1,2.191858602E0
9.824451875E0,1.939617180E0,2.016768998E-1,-2.774550605E-1,1.969713098E0
9.834441875E0,1.691878693E0,1.283203635E0,1.037763834E-1,2.125990267E0
9.844430875E0,1.192931688E0,2.298534626E0,5.298325825E-1,2.643306642E0
9.854420875E0,6.875205866E-1,2.944630905E0,8.643155372E-1,3.144928787E0
9.864410875E0,4.724889386E-1,3.245764850E0,1.109532559E0,3.462556535E0
9.874400875E0,4.759083903E-1,3.333804622E0,1.248668225E0,3.591645081E0
9.884390875E0,6.077745053E-1,3.341183224E0,1.229235588E0,3.611636100E0
9.894380875E0,7.890764898E-1,3.379179016E0,1.117797014E0,3.645677261E0
9.904370875E0,9.393551946E-1,3.479578047E0,9.115481758E-1,3.717629843E0
9.914360875E0,1.038351187E0,3.509838558E0,7.960365037E-1,3.745772818E0
9.924349875E0,1.120418320E0,3.410428875E0,7.768599752E-1,3.672856347E0
9.934339875E0,1.240972997E0,3.203018780E0,8.230085400E-1,3.532235318E0
9.944329875E0,1.354905117E0,2.877759808E0,8.598424172E-1,3.294935261E0
9.954319875E0,1.438570586E0,2.527779978E0,1.001218809E0,3.075970750E0
9.964309875E0,1.419907736E0,2.121792008E0,1.209613502E0,2.825120197E0
9.974299875E0,1.285036444E0,1.685701987E0,1.625741129E0,2.671318788E0
9.984289875E0,9.809116486E-1,1.255722306E0,2.247344738E0,2.754920061E0
9.994279875E0,4.475853547E-1,1.013331828E0,2.893898124E0,3.098680428E0
1.000426887E1,-1.880256978E-1,1.025251377E0,3.365508810E0,3.523229144E0
1.001425888E1,-6.866803417E-1,1.223859074E0,3.451241856E0,3.725645081E0
1.002424888E1,-8.785345039E-1,1.651817372E0,3.287401704E0,3.782503598E0
1.003423887E1,-9.611185312E-1,2.299065553E0,2.962371358E0,3.871058681E0
1.004422888E1,-8.482775018E-1,2.825020262E0,2.877923530E0,4.121014201E0
1.005421888E1,-3.831101543E-1,2.828843756E0,2.968687520E0,4.118523519E0
1.006420888E1,6.534435984E-1,2.236003917E0,3.014377955E0,3.809616321E0
1.007419887E1,2.006702724E0,1.673407631E0,2.914455764E0,3.914230617E0
1.008418888E1,2.610832075E0,1.266932588E0,3.146706001E0,4.280574840E0
1.009417788E1,2.308549444E0,7.183152401E-1,4.091963375E0,4.752845630E0
1.010416788E1,1.384546115E0,-2.222795641E-1,5.261535144E0,5.445193130E0
1.011415787E1,1.668336341E-1,-1.632025132E0,6.513006524E0,6.716442025E0
1.012414787E1,-8.842530808E-1,-3.190910366E0,7.440939767E0,8.144408947E0
1.013413788E1,-1.459193424E0,-4.535856505E0,7.722460982E0,9.074119423E0
1.014412788E1,-1.263340643E0,-5.185354110E0,7.163287071E0,8.932894743E0
1.015411787E1,1.321660772E-1,-4.679782210E0,5.720796511E0,7.392248787E0
1.016410787E1,2.091095587E0,-3.305026381E0,4.049040134E0,5.629441015E0
1.017409688E1,3.411430795E0,-2.147871759E0,2.657257798E0,4.828274243E0
1.018408688E1,4.155238434E0,-1.109540160E0,1.442372446E0,4.536245593E0
1.019407688E1,4.538600311E0,8.915425122E-2,4.764849988E-1,4.564414444E0
1.020406687E1,4.545749409E0,1.162097858E0,2.042205848E-2,4.691985314E0
1.021405688E1,4.111072368E0,1.988967826E0,-3.189106500E-1,4.578057779E0
1.022404688E1,3.082039596E0,2.359637445E0,-9.561940062E-1,3.997644797E0
1.023403688E1,1.419803363E0,2.132590646E0,-1.688111039E0,3.068143304E0
1.024402687E1,-9.926800472E-1,8.476001018E-1,-2.433401824E0,2.761391687E0
1.025401688E1,-3.690075180E0,-1.219191241E0,-3.145667535E0,4.999830633E0
1.026400588E1,-6.427958772E0,-3.507349398E0,-3.453832172E0,8.096240513E0
1.027399588E1,-9.208176498E0,-6.090903627E0,-3.105655038E0,1.146885847E1
1.028398587E1,-1.182069608E1,-8.997752164E0,-2.389309725E0,1.504650128E1
1.029397587E1,-1.362524155E1,-1.194618434E1,-1.949034413E0,1.822518211E1
1.030396588E1,-1.316796239E1,-1.497135363E1,-2.691205562E0,2.011912648E1
1.031395588E1,-9.294166821E0,-1.622526447E1,-6.019227288E0,1.964362087E1
1.032394587E1,-3.659829872E0,-1.473967993E1,-1.065229375E1,1.855057631E1
1.033393587E1,1.185789314E0,-1.187316432E1,-1.223499821E1,1.709015238E1
1.034392588E1,3.728746033E0,-8.065132377E0,-9.758605313E0,1.319773787E1
1.035391429E1,5.006246878E0,-4.197288101E0,-6.372380403E0,9.126169361E0
1.036390429E1,6.413481066E0,-1.131882371E0,-3.672988446E0,7.476947319E0
1.037389429E1,7.462375660E0,1.227754489E0,-1.874943174E0,7.791652166E0
1.038388429E1,7.397070447E0,3.425780155E0,-2.211422807E-1,8.154846705E0
1.039387429E1,6.535672671E0,5.194348882E0,1.374939285E0,8.460894492E0
1.040386429E1,4.857538151E0,6.375695189E0,1.513760956E0,8.156999342E0
1.041385429E1,2.928865935E0,6.905566948E0,9.791139221E-1,7.564639754E0
1.042384429E1,8.410297318E-1,6.653287075E0,1.108704886E0,6.797263157E0
1.043383429E1,-1.292085117E0,6.486102900E0,1.796321951E0,6.853158931E0
1.044382329E1,-3.048627144E0,6.748377419E0,2.284079139E0,7.749305954E0
1.045381329E1,-4.099069788E0,6.818258078E0,2.556050681E0,8.356100253E0
1.046380329E1,-4.720319787E0,6.888895367E0,2.095915155E0,8.609945331E0
1.047379329E1,-4.865454111E0,7.268020059E0,1.203900772E0,8.828710911E0
1.048378329E1,-4.733860769E0,7.800280405E0,1.153070927E-3,9.124352772E0
1.049377329E1,-4.183699172E0,7.931656231E0,-7.572781616E-1,8.999332172E0
1.050376329E1,-3.610548661E0,7.713191391E0,-1.177320499E0,8.597410460E0
1.051375329E1,-2.956669738E0,7.180355093E0,-1.143221877E0,7.848971364E0
1.052374229E1,-2.027722441E0,6.142614064E0,-8.567480707E-1,6.525134718E0
1.053373229E1,-8.892132738E-1,4.824314271E0,-5.397985768E-1,4.935189048E0
1.054372229E1,2.882387879E-1,3.798215048E0,-2.376435618E-1,3.816542101E0
1.055371229E1,1.283263715E0,3.245101776E0,-1.366494298E-3,3.489620777E0
1.056370229E1,2.116387865E0,3.036263791E0,2.610435341E-1,3.710274805E0
1.057369229E1,2.787696023E0,2.778378777E0,4.247304891E-1,3.958665650E0
1.058368229E1,3.159512865E0,1.991399683E0,3.700613616E-1,3.753017406E0
1.059367229E1,3.617710916E0,8.674157310E-1,6.026660854E-1,3.768746308E0
1.060366229E1,4.235363707E0,-6.202919322E-1,1.316187193E0,4.478327427E0
1.061365129E1,4.740426022E0,-2.711310629E0,1.885387325E0,5.777328930E0
1.062364129E1,5.090535661E0,-4.693203324E0,2.196490772E0,7.263902702E0
1.063363129E1,5.073703866E0,-6.645106235E0,5.606361531E-1,8.379392621E0
1.064362129E1,3.554415976E0,-8.517092326E0,-2.593804983E0,9.586582233E0
1.065361129E1,4.228384763E-2,-9.096474214E0,-1.615172725E0,9.238853500E0
1.066360129E1,-2.608660711E0,-9.088223793E0,4.852045861E-1,9.467647327E0
1.067359129E1,-2.993097306E0,-8.370768093E0,2.395952747E0,9.207007088E0
1.068358129E1,-5.548364460E-1,-6.203485333E0,5.812237608E0,8.518989363E0
1.069357129E1,2.523674063E0,-4.121683602E0,8.226215567E0,9.540850541E0
1.070356029E1,4.352212418E0,-3.938019050E0,7.793831511E0,9.756718536E0
1.071355029E1,5.460417659E0,-5.466226283E0,5.333289835E0,9.388278397E0
1.072354029E1,6.171214550E0,-7.126036214E0,-4.377192016E-1,9.436942261E0
1.073353029E1,5.787766426E0,-7.874766916E0,-1.089014913E1,1.463234575E1
1.074352029E1,1.866850920E0,-5.633633237E0,-1.389610797E1,1.511041934E1
1.075351029E1,-8.815352950E-1,-2.906391284E0,-6.509377157E0,7.183049892E0
1.076350029E1,-2.484675181E0,-7.549860531E-1,-1.395155887E-1,2.600592105E0
1.077349029E1,-3.384162598E0,1.460000047E0,2.081428093E0,4.232788624E0
1.078348029E1,-3.560621041E0,3.307519634E0,2.119534982E0,5.301899364E0
1.079346929E1,-3.807488439E0,4.278165618E0,1.116355090E0,5.834887999E0
1.080345929E1,-4.007164714E0,3.854264703E0,5.502697706E-1,5.587085311E0
1.081344929E1,-4.504193248E0,3.015458229E0,1.997485612E-1,5.424080072E0
1.082343929E1,-5.750502121E0,1.946426409E0,-2.125293320E-1,6.074703213E0
1.083342929E1,-7.350043046E0,-1.634495580E-1,-6.862911364E-1,7.383823133E0
1.084341929E1,-8.968671622E0,-3.061952949E0,-1.095301532E0,9.540037315E0
1.085340929E1,-1.017075566E1,-5.528278690E0,-1.609718589E0,1.168748604E1
1.086339929E1,-1.067182345E1,-5.975084903E0,-2.427296746E0,1.246921108E1
1.087338929E1,-9.475131714E0,-2.966526974E0,-3.529523794E0,1.053735932E1
1.088337829E1,-6.875524539E0,8.511329895E-1,-3.679570949E0,7.844520853E0
1.089336829E1,-4.749846179E0,2.261823467E0,-3.252145917E0,6.184928228E0
1.090335829E1,-3.007665937E0,2.605228688E0,-2.580396148E0,4.742543114E0
1.091334829E1,-1.688248888E0,2.521992404E0,-1.218478539E0,3.270370001E0
1.092333829E1,-9.144621357E-1,2.366264679E0,-1.217624553E-1,2.539739283E0
1.093332829E1,-4.555112556E-1,2.123102369E0,3.489752787E-1,2.199281227E0
1.094331829E1,-1.214317587E-1,1.808401714E0,9.467659557E-1,2.044854079E0
1.095330829E1,8.958548337E-2,1.642926680E0,1.255905324E0,2.069911065E0
1.096329829E1,1.603341615E-1,1.747738021E0,1.538315899E0,2.333818982E0
1.097328729E1,8.426422477E-2,1.943368315E0,1.850222170E0,2.684604802E0
1.098327729E1,-1.763110936E-2,2.190825405E0,1.869910330E0,2.880380435E0
1.099326729E1,-6.837558568E-2,2.366241290E0,1.663756217E0,2.893416287E0
1.100325729E1,-3.667782962E-2,2.458992164E0,1.332788608E0,2.797197383E0
1.101324729E1,1.639357540E-1,2.545305253E0,8.466627932E-1,2.687432166E0
1.102323729E1,5.623428091E-1,2.562071559E0,5.453698039E-1,2.679154406E0
1.103322729E1,1.018127422E0,2.573352007E0,4.717884056E-1,2.807366791E0
1.104321729E1,1.430246198E0,2.558837464E0,4.887114537E-1,2.971883618E0
1.105320729E1,1.808380372E0,2.526550308E0,5.611970472E-1,3.157315023E0
1.106319629E1,2.034981905E0,2.509710912E0,6.656306577E-1,3.298918670E0
1.107318629E1,2.217888366E0,2.423304268E0,7.290624225E-1,3.364961276E0
1.108317629E1,2.402245813E0,2.209042990E0,7.344640803E-1,3.345159692E0
1.109316629E1,2.573459888E0,1.855778779E0,9.050764775E-1,3.299359650E0
1.110315629E1,2.747102605E0,1.421137698E0,1.260065618E0,3.339756045E0
1.111314629E1,2.918750252E0,9.514121532E-1,1.757984097E0,3.537625786E0
1.112313629E1,2.971095696E0,5.899203247E-1,2.311403178E0,3.810249372E0
1.113312629E1,2.836096058E0,4.583872086E-1,2.774875710E0,3.994182631E0
1.114311629E1,2.504058116E0,7.561929184E-1,3.089360018E0,4.047997048E0
1.115310629E1,1.792347306E0,1.317261327E0,3.248164548E0,3.936782849E0
1.116309529E1,9.218533087E-1,2.008256621E0,3.047385195E0,3.764234943E0
1.117308529E1,3.376246637E-1,2.556496239E0,2.526873075E0,3.610367151E0
1.118307529E1,1.971555403E-1,2.855774862E0,2.291974050E0,3.667078594E0
1.119306529E1,4.070381302E-1,2.717436172E0,2.476664203E0,3.699189771E0
1.120305529E1,1.100122342E0,2.091177741E0,2.926165398E0,3.761081952E0
1.121304529E1,2.041990086E0,1.453182194E0,3.661987202E0,4.437523213E0
1.122303529E1,2.448042960E0,7.883847642E-1,4.548305812E0,5.225088576E0
1.123302529E1,2.242766222E0,-9.583527982E-2,5.668207823E0,6.096537103E0
1.124301529E1,1.633388410E0,-1.293488302E0,6.620464314E0,6.940577600E0
1.125300429E1,5.380853426E-1,-2.588815554E0,6.965469918E0,7.450454549E0
1.126299429E1,-6.890247828E-1,-3.877675785E0,6.521203151E0,7.618216010E0
1.127298429E1,-1.150727947E0,-4.753687508E0,5.325895447E0,7.230966881E0
1.128297429E1,-3.913026881E-1,-4.421856265E0,3.744047027E0,5.807221260E0
1.129296429E1,1.386860735E0,-3.128094898E0,2.610492936E0,4.303839421E0
1.130295429E1,2.952786017E0,-1.867089633E0,1.709847479E0,3.889543336E0
1.131294429E1,3.731773721E0,-7.911692083E-1,7.507262834E-1,3.887888087E0
1.132293429E1,3.949570225E0,-2.538217843E-2,3.801099845E-1,3.967900303E0
1.133292429E1,3.775676663E0,6.590648192E-1,6.464718170E-3,3.832772168E0
1.134291329E1,3.263935950E0,1.121845626E0,-5.940946519E-1,3.502108501E0
1.135290417E1,2.308939746E0,1.327744800E0,-1.223638633E0,2.931109092E0
1.136289417E1,7.820139304E-1,9.923584503E-1,-1.732328854E0,2.144127874E0
1.137288417E1,-1.453144479E0,-3.934199649E-1,-2.155493020E0,2.629174453E0
1.138287417E1,-3.937667340E0,-2.364712243E0,-2.430151357E0,5.196414504E0
1.139286417E1,-6.645470517E0,-4.329140475E0,-2.417152412E0,8.291342558E0
1.140285417E1,-9.436806723E0,-6.276455076E0,-2.125365826E0,1.153101857E1
1.141284417E1,-1.181633990E1,-8.497416446E0,-1.921833166E0,1.468078396E1
1.142283417E1,-1.320896307E1,-1.080984698E1,-2.117522371E0,1.719922667E1
1.143282317E1,-1.208015926E1,-1.283209365E1,-3.519596976E0,1.797165652E1
1.144281317E1,-8.071758442E0,-1.340063129E1,-7.251809238E0,1.724293886E1
1.145280317E1,-3.115283648E0,-1.262486131E1,-1.223198923E1,1.785255376E1
1.146279317E1,1.208110183E0,-1.089674245E1,-1.376826445E1,1.760010319E1
1.147278317E1,3.988828431E0,-8.170675204E0,-1.108219508E1,1.433477357E1
1.148277317E1,5.268302711E0,-4.732941586E0,-7.838302510E0,1.056384096E1
1.149276317E1,6.118130602E0,-1.570911203E0,-4.819645562E0,7.945329912E0
1.150275317E1,7.153588294E0,8.394759804E-1,-2.725805876E0,7.701205301E0
1.151274317E1,7.346627102E0,2.943900003E0,-1.217815976E0,8.007655885E0
1.152273217E1,6.642350442E0,4.713590226E0,-5.632447422E-2,8.145055228E0
1.153272217E1,5.485817964E0,5.646902323E0,8.410006419E-1,7.917637695E0
1.154271217E1,4.151134566E0,5.847274125E0,1.112833312E0,7.256785160E0
1.155270217E1,2.136349674E0,5.716541492E0,1.808134350E0,6.364918412E0
1.156269217E1,-3.454866837E-1,5.284595978E0,2.365882856E0,5.800320455E0
1.157268217E1,-2.132737264E0,4.976289253E0,2.621562885E0,6.015364904E0
1.158267217E1,-3.321994416E0,4.940375655E0,2.878363826E0,6.612710248E0
1.159266217E1,-4.143746901E0,5.305874580E0,2.566149407E0,7.204725270E0
1.160265217E1,-4.446275992E0,5.890292090E0,1.692505222E0,7.571623672E0
1.161264217E1,-4.201961195E0,6.573131104E0,6.312851362E-1,7.826943932E0
1.162263117E1,-3.682265346E0,7.086204396E0,-1.403608038E-1,7.987056528E0
1.163262117E1,-3.125473006E0,7.417003605E0,-5.468539734E-1,8.067191163E0
1.164261117E1,-2.556880985E0,7.642883300E0,-6.584767355E-1,8.086092822E0
1.165260117E1,-1.949411120E0,7.654785308E0,-6.061833318E-1,7.922335518E0
1.166259117E1,-9.681308046E-1,7.196117433E0,-2.881386544E-1,7.266664107E0
1.167258117E1,2.005412243E-1,6.429329360E0,1.629005045E-1,6.434518581E0
1.168257117E1,1.259530744E0,5.718392721E0,6.212574537E-1,5.888326912E0
1.169256117E1,2.196519424E0,5.035641416E0,1.038441088E0,5.591130649E0
1.170255117E1,2.860692371E0,3.993069416E0,8.116667689E-1,4.978651137E0
1.171254117E1,3.226865480E0,2.149840516E0,-1.435263401E-1,3.880086968E0
1.172253017E1,3.598506905E0,-7.931689560E-2,-6.213075936E-1,3.652610880E0
1.173252017E1,3.964265447E0,-2.734724050E0,-5.889046633E-1,4.851899099E0
1.174251017E1,4.402832349E0,-5.669219976E0,-1.161167859E-1,7.179029944E0
1.175250017E1,4.514002537E0,-8.702889358E0,-8.443986051E-1,9.840198732E0
1.176249017E1,2.682929413E0,-1.081457387E1,-2.561119632E0,1.143295465E1
1.177248017E1,-1.391271874E-2,-1.135729488E1,-1.313268848E0,1.143297930E1
1.178247017E1,-1.992913527E0,-1.044222201E1,1.152325260E0,1.069296770E1
1.179246017E1,-1.962082767E0,-8.619816211E0,3.787722804E0,9.617579962E0
1.180245017E1,1.693229400E-1,-5.808508839E0,5.939582364E0,8.309397322E0
1.181243917E1,2.477273483E0,-3.372718427E0,6.608040150E0,7.821656355E0
1.182242917E1,4.096154074E0,-2.435508576E0,5.944405147E0,7.618801269E0
1.183241917E1,4.870136561E0,-2.907845487E0,4.204031110E0,7.060288456E0
1.184240917E1,4.459029061E0,-3.455971668E0,1.288102870E0,5.786699348E0
1.185239917E1,2.967371312E0,-2.581116525E0,-6.114543335E0,7.270150976E0
1.186238917E1,5.011765480E-2,-2.242224185E0,-1.503182670E1,1.519822013E1
1.187237917E1,-1.526494876E0,-2.780105460E0,-8.257469519E0,8.845619019E0
1.188236917E1,-2.163734232E0,-2.869921616E0,-2.324664225E0,4.280450871E0
1.189235917E1,-2.910402474E0,-2.305782834E0,-2.976947589E-1,3.725009961E0
1.190234817E1,-3.543142836E0,-7.815575552E-1,1.972276072E-1,3.633674738E0
1.191233817E1,-3.899167226E0,4.304310858E-2,1.336281735E-1,3.901693767E0
1.192232817E1,-4.193811346E0,1.237218207E-1,3.265231401E-3,4.195637182E0
1.193231817E1,-4.612703244E0,3.137586683E-1,1.116596726E-1,4.624710110E0
1.194230817E1,-5.139975039E0,4.417583120E-1,-4.569957174E-2,5.159126114E0
1.195229817E1,-5.676996188E0,-1.582180542E-1,-1.859268397E-1,5.682243172E0
1.196228817E1,-6.475016579E0,-1.108704593E0,-1.270324411E-1,6.570479649E0
1.197227817E1,-7.195208191E0,-1.587610266E0,1.079541824E-1,7.369069234E0
1.198226817E1,-7.579704720E0,-7.830971271E-1,-1.730483838E-1,7.622014858E0
1.199225817E1,-7.734644825E0,1.180750476E0,-1.547560932E0,7.975828928E0
1.200224717E1,-7.310046921E0,2.601930274E0,-2.738547544E0,8.228394120E0
1.201223717E1,-6.322373260E0,2.843652415E0,-3.158042582E0,7.617873434E0
1.202222717E1,-4.734088225E0,2.054681175E0,-2.883242158E0,5.911547293E0
1.203221717E1,-3.114291961E0,9.695385218E-1,-1.911261839E0,3.780441929E0
1.204220717E1,-1.902276422E0,3.191223192E-1,-7.479782382E-1,2.068807890E0
1.205219717E1,-9.847908376E-1,1.027911276E-1,2.026860561E-1,1.010673363E0
1.206218717E1,-3.442014657E-1,1.402343577E-1,6.327693788E-1,7.338510822E-1
1.207217717E1,9.866357803E-2,4.362198293E-1,7.189180881E-1,8.466790764E-1
1.208216717E1,3.785367545E-1,9.234852666E-1,7.862663180E-1,1.270562802E0
1.209215717E1,5.015308893E-1,1.443876935E0,8.914495414E-1,1.769462099E0
1.210214617E1,5.322980610E-1,1.932457995E0,9.595374441E-1,2.222261739E0
1.211213617E1,5.732788566E-1,2.294548579E0,8.920383561E-1,2.527713247E0
1.212212617E1,8.045575780E-1,2.442559733E0,8.451577199E-1,2.706972944E0
1.213211617E1,1.144019729E0,2.447360297E0,8.712327933E-1,2.838555997E0
1.214210617E1,1.432706999E0,2.455180948E0,8.193855321E-1,2.958370410E0
1.215209617E1,1.685504643E0,2.485692889E0,7.804723120E-1,3.103019831E0
1.216208617E1,1.883499259E0,2.482862837E0,6.707469714E-1,3.187801566E0
1.217207617E1,1.912609622E0,2.533136027E0,4.439369845E-1,3.204985764E0
1.218206617E1,1.887568628E0,2.502970242E0,3.023373020E-1,3.149473480E0
1.219205517E1,1.882329816E0,2.369872996E0,2.443376187E-1,3.036307696E0
1.220204517E1,1.883210406E0,2.151874763E0,3.501032066E-1,2.880905879E0
1.221203517E1,1.843281817E0,1.796544145E0,7.400727296E-1,2.678239416E0
1.222202517E1,1.744851251E0,1.301905369E0,1.324796634E0,2.548440621E0
1.223201517E1,1.451603153E0,8.883622116E-1,1.996366893E0,2.623322303E0
1.224200517E1,9.811820823E-1,6.607634354E-1,2.558322909E0,2.818571039E0
1.225199517E1,4.750713614E-1,8.587314463E-1,2.768815656E0,2.937592999E0
1.226198517E1,2.672908455E-2,1.333834090E0,2.773136748E0,3.077355236E0
1.227197517E1,-1.375504857E-1,1.835405325E0,2.752559227E0,3.311225625E0
1.228196517E1,1.677370289E-1,2.193587045E0,2.665484830E0,3.456120544E0
1.229195417E1,7.347169724E-1,2.482182806E0,2.580343523E0,3.655025746E0
1.230194417E1,1.558454880E0,2.440504437E0,2.734692475E0,3.982886698E0
1.231193417E1,2.517593836E0,1.853257459E0,3.128666171E0,4.422826465E0
1.232192417E1,3.194028979E0,1.137328468E0,3.375244424E0,4.784099924E0
1.233191417E1,3.449255264E0,4.299106836E-1,3.904599874E0,5.227627115E0
1.234190417E1,3.277588322E0,-5.408721256E-1,4.601000919E0,5.674886547E0
1.235189417E1,2.611002814E0,-1.868847890E0,5.458270562E0,6.332664973E0
1.236188388E1,1.465529174E0,-3.520657076E0,6.302157097E0,7.366137800E0
1.237187387E1,1.024110585E-1,-5.181278601E0,6.598750094E0,8.390449259E0
1.238186287E1,-1.042543933E0,-6.316054174E0,5.833824359E0,8.661001376E0
1.239185288E1,-1.404995289E0,-6.276850348E0,4.122860062E0,7.640080964E0
1.240184288E1,-1.829032445E-1,-5.194396829E0,2.601828532E0,5.812462793E0
1.241183288E1,1.949703481E0,-3.812980437E0,1.814965214E0,4.651264581E0
1.242182287E1,3.360798878E0,-2.378656683E0,1.187072413E0,4.285104156E0
1.243181288E1,3.958938634E0,-1.215364239E0,6.635315073E-1,4.194112469E0
1.244180288E1,4.146824875E0,-3.245736784E-1,3.280100139E-1,4.172420783E0
1.245179288E1,3.882345956E0,3.221464992E-1,3.302752984E-1,3.909663702E0
1.246178287E1,2.979871782E0,9.378512907E-1,6.454203415E-1,3.189948008E0
1.247177288E1,1.569239776E0,1.618209915E0,6.780033660E-1,2.353891537E0
1.248176188E1,1.720630914E-2,1.662628874E0,3.039604890E-1,1.690272998E0
1.249175188E1,-1.515865515E0,1.067622056E0,-3.576378556E-1,1.888271683E0
1.250174187E1,-3.209979014E0,-8.431684971E-4,-1.303546683E0,3.464563455E0
1.251173187E1,-4.770179579E0,-1.166264584E0,-2.417417876E0,5.473453707E0
1.252172188E1,-5.901860222E0,-2.211951980E0,-3.227244380E0,7.080945694E0
1.253171188E1,-6.541095378E0,-3.199636166E0,-3.599308559E0,8.122722601E0
1.254170187E1,-6.424482602E0,-4.458032988E0,-3.928526680E0,8.751077460E0
1.255169187E1,-5.523834221E0,-6.415375564E0,-4.451922648E0,9.565009325E0
1.256168188E1,-4.067517920E0,-8.434077067E0,-5.346596344E0,1.078259943E1
1.257167188E1,-2.154466249E0,-9.968281789E0,-6.443362677E0,1.206338631E1
1.258166088E1,1.032843402E-1,-1.017078607E1,-6.882464014E0,1.228103692E1
1.259165087E1,2.140350778E0,-8.580532277E0,-6.144700350E0,1.076865721E1
1.260164088E1,3.057497663E0,-5.363314118E0,-4.356193203E0,7.555782521E0
1.261163088E1,3.781552822E0,-2.591029894E0,-2.159272075E0,5.067152411E0
1.262162088E1,3.953771742E0,-2.181368119E-1,-1.599935612E0,4.270794846E0
1.263161087E1,3.390927826E0,2.202788224E0,-1.783481612E0,4.419442741E0
1.264160088E1,2.753933907E0,4.056629235E0,-1.215604705E0,5.051543083E0
1.265159088E1,1.788913675E0,5.411254855E0,-4.377532616E-2,5.699456774E0
1.266158087E1,3.663491106E-1,6.032270672E0,3.596324140E-1,6.054076033E0
1.267157087E1,-6.293273422E-1,5.930463631E0,3.947502065E-1,5.976811818E0
1.268155987E1,-1.116159647E0,5.564502776E0,7.357608466E-1,5.722835619E0
1.269154988E1,-1.250172860E0,5.343510768E0,1.519885622E0,5.694391259E0
1.270153988E1,-1.492339243E0,5.449331923E0,2.231185811E0,6.074576936E0
1.271152987E1,-1.732444921E0,5.636236417E0,2.257328859E0,6.313799168E0
1.272151988E1,-1.804626021E0,5.759718502E0,1.505719280E0,6.220789568E0
1.273150988E1,-1.800451109E0,5.771711726E0,3.132173623E-1,6.054121370E0
1.274149988E1,-1.653679271E0,5.575756912E0,-9.009940977E-1,5.885194188E0
1.275148987E1,-1.320373946E0,5.110637804E0,-1.760942788E0,5.564433989E0
1.276147988E1,-7.972647844E-1,4.256381232E0,-1.982451835E0,4.762617726E0
1.277146988E1,-6.103104427E-2,3.370392405E0,-1.660495225E0,3.757727257E0
1.278145888E1,7.869885953E-1,2.824652472E0,-1.102641177E0,3.132703338E0
1.279144887E1,1.629514630E0,2.654377459E0,-3.142195751E-1,3.130458683E0
1.280143887E1,2.542575188E0,2.764259505E0,4.678826483E-1,3.784802950E0
1.281142888E1,3.446512043E0,2.997427754E0,9.429173183E-1,4.663915895E0
1.282141888E1,4.279989365E0,3.193266209E0,1.006039765E0,5.433909647E0
1.283140887E1,4.954694316E0,3.071809015E0,7.082609528E-1,5.872532671E0
1.284139887E1,5.187221126E0,2.334362270E0,8.655013525E-1,5.753746850E0
1.285138888E1,5.212027354E0,1.005774887E0,1.680355877E0,5.567801014E0
1.286137888E1,5.543018936E0,-1.048675323E0,2.772049751E0,6.285621582E0
1.287136887E1,5.772250839E0,-3.328555577E0,2.620198145E0,7.159860355E0
1.288135787E1,5.325258100E0,-5.798683178E0,3.323713790E-1,7.879947409E0
1.289134788E1,3.215254079E0,-8.039973562E0,-1.839282614E0,8.852231030E0
1.290133788E1,2.917766458E-1,-9.620232709E0,-3.593856615E-1,9.631363820E0
1.291132788E1,-1.964835783E0,-1.020055424E1,1.942361425E0,1.056809607E1
1.292131787E1,-2.978756718E0,-1.000137586E1,4.114208522E0,1.121727340E1
1.293130788E1,-1.754842680E0,-8.231593836E0,6.025783187E0,1.035126432E1
1.294129788E1,5.434495783E-1,-5.700027201E0,6.004397580E0,8.296893264E0
1.295128788E1,2.071356264E0,-4.715322171E0,3.614133589E0,6.291799548E0
1.296127787E1,2.914573001E0,-5.097000927E0,-2.254528481E0,6.289439792E0
1.297126788E1,1.317716386E0,-3.841889656E0,-8.806833556E0,9.698289019E0
1.298125688E1,-2.146159840E0,-1.153134661E0,-8.615482839E0,8.953338269E0
1.299124688E1,-3.568092613E0,6.587145710E-1,-2.727624945E0,4.539287127E0
1.300123687E1,-3.762471603E0,2.116209086E0,8.795397864E-1,4.405465208E0
1.301122687E1,-3.832426814E0,3.234442302E0,1.644665058E0,5.277692246E0
1.302121688E1,-4.081638069E0,3.636783949E0,1.294678211E0,5.618020869E0
1.303120688E1,-4.493472962E0,2.552544690E0,8.319126800E-1,5.234392263E0
1.304119687E1,-5.354084288E0,5.860769498E-1,3.251683402E-1,5.395872423E0
1.305118687E1,-6.687548835E0,-1.294620323E0,-4.123637011E-1,6.824177241E0
1.306117688E1,-7.859920835E0,-3.208548492E0,-1.084478921E0,8.558576605E0
1.307116688E1,-8.861524318E0,-5.650239914E0,-1.586166004E0,1.062862865E1
1.308115588E1,-9.575509111E0,-7.542791832E0,-2.030731564E0,1.235750598E1
1.309114587E1,-9.198246757E0,-6.867909710E0,-2.648014519E0,1.178082799E1
1.310113588E1,-7.350316111E0,-3.158134968E0,-2.850238718E0,8.492633523E0
1.311112588E1,-5.173629273E0,3.608012724E-1,-2.537929575E0,5.773881185E0
1.312111588E1,-3.537856369E0,2.079452904E0,-1.936932285E0,4.537869405E0
1.313110587E1,-2.234461568E0,2.636538774E0,-1.327723750E0,3.702297335E0
1.314109588E1,-1.224332406E0,2.199871048E0,-7.053455311E-1,2.614562064E0
1.315108588E1,-5.226264739E-1,1.359917935E0,-1.925605059E-2,1.457012703E0
1.316107587E1,5.419053286E-2,7.371193010E-1,8.919412923E-1,1.158378499E0
1.317106587E1,4.580001229E-1,6.579959482E-1,9.068166089E-1,1.210388013E0
1.318105487E1,6.764418671E-1,9.516934043E-1,3.022648148E-1,1.206092017E0
1.319104488E1,7.700344473E-1,1.430320165E0,1.227786648E-1,1.629062131E0
1.320103488E1,6.887332991E-1,1.898765754E0,4.326343167E-1,2.065632445E0
1.321102487E1,3.554589638E-1,2.375247756E0,9.968239689E-1,2.600348247E0
1.322101488E1,-9.738537669E-2,2.793103820E0,1.408427020E0,3.129629296E0
1.323100488E1,-2.746899122E-1,3.048987333E0,1.552510600E0,3.432501634E0
1.324099488E1,-1.490192145E-1,3.195303379E0,1.516028652E0,3.539846506E0
1.325098487E1,2.626972729E-1,3.333436248E0,1.325984788E0,3.597088091E0
1.326097488E1,7.577564639E-1,3.563303159E0,1.139797747E0,3.817127607E0
1.327096488E1,1.223711724E0,3.843213465E0,9.280466795E-1,4.138723325E0
1.328095388E1,1.584090242E0,4.135250897E0,8.883803380E-1,4.516509880E0
1.329094387E1,1.804379414E0,4.355336586E0,1.030016273E0,4.825523326E0
1.330093387E1,1.950515074E0,4.456348990E0,1.348056858E0,5.047852283E0
1.331092388E1,2.098157562E0,4.269812871E0,1.750057611E0,5.069148720E0
1.332091388E1,2.166560337E0,3.915955752E0,2.261119462E0,5.014115512E0
1.333090387E1,2.088886217E0,3.337181974E0,2.636984332E0,4.738556270E0
1.334089387E1,1.864649297E0,2.716822799E0,2.971694158E0,4.437229912E0
1.335088388E1,1.422997697E0,2.132349156E0,3.230697745E0,4.124226386E0
1.336087292E1,7.911268160E-1,1.739305751E0,3.266323661E0,3.784169181E0
1.337086292E1,5.950038940E-2,1.632075418E0,2.965832909E0,3.385760670E0
1.338085192E1,-6.317089131E-1,1.789814585E0,2.664053432E0,3.271035476E0
1.339084192E1,-1.036480955E0,2.017449029E0,2.771539289E0,3.581315873E0
1.340083192E1,-9.243100163E-1,2.130552891E0,3.316069432E0,4.048446753E0
1.341082192E1,-1.664091262E-1,1.977065234E0,3.944780771E0,4.415628411E0
1.342081192E1,1.197863522E0,1.573191032E0,4.620313103E0,5.025644259E0
1.343080192E1,2.747969747E0,9.822474450E-1,5.301794393E0,6.051873393E0
1.344079192E1,3.638371468E0,3.827183908E-1,5.875442501E0,6.921347043E0
1.345078192E1,4.031816576E0,-3.889176089E-1,6.778929706E0,7.896878482E0
1.346077192E1,4.110304044E0,-1.457056559E0,7.546372082E0,8.715810046E0
1.347076192E1,3.975680674E0,-2.877891371E0,7.596812503E0,9.044327270E0
1.348075092E1,3.462937456E0,-4.369197995E0,6.909135504E0,8.877949108E0
1.349074092E1,2.751597067E0,-5.452384754E0,5.778653541E0,8.407890501E0
1.350073092E1,2.180942734E0,-5.720630450E0,3.882746198E0,7.249678751E0
1.351072092E1,1.965683629E0,-4.842924789E0,1.505963401E0,5.439279218E0
1.352071092E1,2.189432598E0,-3.350438197E0,-5.468338736E-1,4.039564147E0
1.353070092E1,2.633691180E0,-2.411463656E0,-1.627772452E0,3.924427264E0
1.354069092E1,2.656679216E0,-2.036336120E0,-1.797305453E0,3.799331012E0
1.355068092E1,2.135065480E0,-1.510358607E0,-1.900052726E0,3.232628665E0
1.356067092E1,1.209289859E0,-1.231279190E0,-1.972940608E0,2.621244943E0
1.357066092E1,-2.986939019E-1,-1.433283534E0,-1.841703361E0,2.352741169E0
1.358064992E1,-2.441777961E0,-2.111264681E0,-1.752166117E0,3.672846888E0
1.359063992E1,-5.191791894E0,-3.310947856E0,-2.085070324E0,6.501122752E0
1.360062992E1,-7.910373536E0,-4.347663285E0,-2.663568113E0,9.411205056E0
1.361061992E1,-1.045081858E1,-4.915358927E0,-3.020376322E0,1.193746353E1
1.362060992E1,-1.249885849E1,-5.328367649E0,-3.192417778E0,1.395723814E1
1.363059992E1,-1.366062072E1,-5.782538431E0,-3.431827930E0,1.522589085E1
1.364058992E1,-1.285674551E1,-6.581791415E0,-3.576627209E0,1.487978983E1
1.365057992E1,-9.173359838E0,-7.763937621E0,-4.432657242E0,1.280928212E1
1.366056992E1,-4.978404776E0,-8.307826910E0,-6.380165970E0,1.159788860E1
1.367055992E1,-1.366699535E0,-8.226418465E0,-9.006003755E0,1.227395340E1
1.368054992E1,1.746852168E0,-7.424921905E0,-1.055035223E1,1.301886669E1
1.369053892E1,3.848232715E0,-5.571928155E0,-9.225700019E0,1.144416092E1
1.370052892E1,5.152585144E0,-3.013804636E0,-6.248981348E0,8.641870165E0
1.371051892E1,6.390965778E0,-1.052512851E0,-3.781386176E0,7.500073885E0
1.372050892E1,7.174790883E0,7.700116432E-1,-2.110568716E0,7.518313804E0
1.373049892E1,7.134181386E0,2.674512346E0,-8.078865440E-1,7.661738771E0
1.374048892E1,6.187150551E0,4.497694652E0,1.274102443E-1,7.650249832E0
1.375047892E1,4.898708981E0,5.801737179E0,9.199843924E-1,7.648782599E0
1.376046892E1,3.529041106E0,6.363410189E0,1.596275255E0,7.449511062E0
1.377045892E1,1.761176823E0,6.101712790E0,1.801326583E0,6.601319583E0
1.378044892E1,1.066459045E-2,5.639428997E0,2.215762026E0,6.059114993E0
1.379043792E1,-1.456546682E0,5.690738314E0,2.466052676E0,6.370827780E0
1.380042792E1,-2.892072330E0,6.102240209E0,1.950352668E0,7.028889917E0
1.381041792E1,-3.810211195E0,6.555112324E0,1.219591045E0,7.679492773E0
1.382040792E1,-4.067408577E0,6.946787480E0,5.558203863E-1,8.069114271E0
1.383039792E1,-3.986228759E0,7.428945959E0,-7.803986371E-3,8.430855157E0
1.384038792E1,-3.764173143E0,7.957098636E0,-6.723515935E-1,8.828163729E0
1.385037792E1,-3.128672603E0,8.060633529E0,-1.127542568E0,8.719733791E0
1.386036792E1,-2.164847395E0,7.741402452E0,-1.321482432E0,8.146299282E0
1.387035792E1,-8.806824785E-1,6.780246499E0,-9.816847967E-1,6.907318528E0
1.388034792E1,3.658740243E-1,5.504838957E0,-3.921084344E-1,5.530900900E0
1.389033692E1,1.491350625E0,4.635626376E0,1.466655640E-1,4.871824029E0
1.390032692E1,2.523153076E0,3.982533318E0,5.889029092E-1,4.751176666E0
1.391031692E1,3.361048554E0,3.254736818E0,5.842214821E-1,4.715005183E0
1.392030692E1,3.905206815E0,2.111617852E0,7.776548311E-2,4.440227212E0
1.393029692E1,4.327610843E0,3.502511412E-1,-2.684339762E-2,4.341844313E0
1.394028692E1,4.696727441E0,-1.840932698E0,8.544438292E-1,5.116478878E0
1.395027692E1,5.103619975E0,-4.505461509E0,1.883988817E0,7.063677096E0
1.396026692E1,5.623346815E0,-7.797278445E0,5.633494073E-1,9.630002238E0
1.397025692E1,4.680155262E0,-1.076434512E1,-2.745566542E0,1.205458895E1
1.398024692E1,1.655351721E0,-1.147135535E1,-4.847658987E-1,1.160030952E1
1.399023592E1,-6.161525421E-1,-1.046146168E1,4.291634679E0,1.132430805E1
1.400022592E1,-1.436060961E0,-8.348383198E0,7.017609540E0,1.100020985E1
1.401021592E1,-2.439930533E-1,-4.822364810E0,8.356166427E0,9.650919765E0
1.402020592E1,1.902123956E0,-1.859671855E0,8.777620867E0,9.171863662E0
1.403019592E1,3.215960423E0,-1.456529140E0,7.336151231E0,8.141436818E0
1.404018592E1,3.252884128E0,-2.850272048E0,3.760425078E0,5.731151949E0
1.405017592E1,1.939281258E0,-3.147445089E0,-1.449124811E0,3.970791495E0
1.406016592E1,-1.690647708E0,-2.313688855E0,-1.515285939E1,1.542143292E1
1.407015592E1,-5.052860296E0,-3.062370440E0,-1.807497150E1,1.901615378E1
1.408014592E1,-5.048395947E0,-2.817025949E0,-4.510606474E0,7.332633060E0
1.409013592E1,-4.474475359E0,-1.911339022E0,3.265754142E0,5.859974122E0
1.410012492E1,-4.377964141E0,-4.107014108E-1,3.471235825E0,5.602207049E0
1.411011492E1,-4.588460396E0,4.716364145E-1,2.485659560E0,5.239743616E0
1.412010492E1,-5.413368039E0,8.627625167E-2,1.106290351E0,5.525927565E0
1.413009492E1,-6.429868473E0,-5.479759079E-1,-1.894100992E-1,6.455955573E0
1.414008492E1,-7.246599954E0,-9.924350488E-1,-1.238446707E0,7.418348095E0
1.415007492E1,-7.778324695E0,-2.181994355E0,-2.489764890E0,8.453541485E0
1.416006492E1,-7.869320819E0,-4.109365858E0,-3.133889489E0,9.414582372E0
1.417005492E1,-7.706195782E0,-5.296835954E0,-3.444190114E0,9.965157806E0
1.418004492E1,-6.664356439E0,-4.806231757E0,-3.648768402E0,8.990384936E0
1.419003492E1,-4.375512988E0,-2.719716586E0,-2.831018921E0,5.878489631E0
1.420002492E1,-2.290953857E0,-1.216132563E0,-1.684511493E0,3.092737777E0
1.421001392E1,-8.542596419E-1,-2.806558263E-1,-9.733462286E-1,1.325115131E0
1.422000392E1,1.830215044E-1,5.066027641E-1,-9.457035166E-1,1.088346624E0
1.422999392E1,8.764547954E-1,1.128552967E0,-1.437830329E0,2.027106525E0
1.423998392E1,1.082453519E0,1.804523841E0,-1.232325257E0,2.438572831E0
1.424997392E1,9.040760189E-1,2.379662989E0,-6.208158427E-1,2.620221689E0
1.425996392E1,4.473371404E-1,2.846849087E0,8.378652552E-2,2.882998513E0
1.426995392E1,-6.827150524E-2,3.326191548E0,8.134704888E-1,3.424900793E0
1.427994392E1,-5.022135517E-1,3.778737972E0,1.450260340E0,4.078521076E0
1.428993392E1,-7.410594472E-1,4.184342365E0,2.091972377E0,4.736479554E0
1.429992392E1,-8.373823848E-1,4.465782303E0,2.500594518E0,5.186269737E0
1.430991292E1,-4.809071749E-1,4.253554688E0,2.675147939E0,5.047812961E0
1.431990292E1,4.529077828E-2,3.979934231E0,2.421251310E0,4.658796588E0
1.432989292E1,6.426092926E-1,3.762394420E0,1.665584056E0,4.164460196E0
1.433988292E1,1.223166471E0,3.631102209E0,9.347043192E-1,3.943946201E0
1.434987292E1,1.750967731E0,3.558656961E0,6.202270281E-1,4.014300553E0
1.435986292E1,2.216321312E0,3.496857154E0,7.777077484E-1,4.212471894E0
1.436985292E1,2.675316339E0,3.319675995E0,1.159496944E0,4.418370671E0
1.437984292E1,3.064689738E0,3.116736681E0,1.078799593E0,4.502241585E0
1.438983292E1,3.003594813E0,3.142844499E0,1.380474991E0,4.561224018E0
1.439982292E1,3.015302108E0,3.004982357E0,1.830090791E0,4.633702415E0
1.440981292E1,2.983067870E0,2.625255402E0,2.174391221E0,4.529750216E0
1.441980192E1,2.771165944E0,2.154375032E0,2.441313107E0,4.275593778E0
1.442979192E1,2.347576393E0,1.852697881E0,2.644848837E0,3.992346394E0
1.443978192E1,1.723524701E0,1.710692986E0,2.722799238E0,3.648375471E0
1.444977192E1,1.126836224E0,1.894248780E0,2.665818121E0,3.458977388E0
1.445976192E1,8.104585880E-1,2.296556513E0,2.775435873E0,3.692432698E0
1.446975192E1,7.523720554E-1,2.719984973E0,3.119334015E0,4.206498147E0
1.447974192E1,8.575137636E-1,2.817276794E0,3.519752512E0,4.589230451E0
1.448973192E1,1.405275079E0,2.298508313E0,3.941564802E0,4.774292785E0
1.449972192E1,2.290902255E0,1.321315786E0,4.659532717E0,5.357737740E0
1.450971192E1,2.763019896E0,1.945965064E-1,5.677023085E0,6.316703084E0
1.451970092E1,2.439877323E0,-9.864942777E-1,6.469841208E0,6.984627232E0
1.452969092E1,1.535795165E0,-2.411250232E0,6.879846801E0,7.450173587E0
1.453968092E1,2.129029691E-1,-3.895563587E0,6.551063712E0,7.624774035E0
1.454967092E1,-1.044339613E0,-5.056628242E0,5.110854735E0,7.265051310E0
1.455966092E1,-1.187612184E0,-5.348224209E0,2.670946130E0,6.094905915E0
1.456965092E1,1.199994832E-2,-4.506332744E0,2.482587433E-1,4.513181937E0
1.457964092E1,1.611048538E0,-3.431974695E0,-1.371107751E0,4.031608136E0
1.458963092E1,2.887608858E0,-3.345604888E0,-1.692194735E0,4.732322898E0
1.459962092E1,3.547691385E0,-3.936505206E0,-9.309094763E-1,5.380407035E0
1.460961092E1,3.147618751E0,-4.055406582E0,-3.762390181E-1,5.147366526E0
1.461960092E1,1.632040334E0,-3.449863667E0,-4.890493862E-1,3.847633594E0
1.462958992E1,-4.594435081E-1,-2.890531297E0,-7.209055567E-1,3.014293339E0
1.463957992E1,-2.545729761E0,-2.715639322E0,-9.019680977E-1,3.830010887E0
1.464956992E1,-4.541906327E0,-3.043835936E0,-1.132264194E0,5.583535841E0
1.465955992E1,-6.914627209E0,-3.760364851E0,-1.410200481E0,7.996316567E0
1.466954992E1,-8.552070955E0,-3.939231763E0,-2.083700906E0,9.643509422E0
1.467953992E1,-9.684336319E0,-4.127836627E0,-2.957205927E0,1.093482840E1
1.468952992E1,-9.948863186E0,-4.948113860E0,-3.913756614E0,1.178054329E1
1.469951992E1,-8.780750881E0,-6.597796998E0,-4.490676239E0,1.186586214E1
1.470950992E1,-6.314303518E0,-8.383976954E0,-4.992034051E0,1.162247402E1
1.471949992E1,-3.598857738E0,-9.366807366E0,-6.654396291E0,1.204034249E1
1.472948992E1,-9.840823013E-1,-9.401619349E0,-9.445086966E0,1.336295372E1
1.473947892E1,1.542392286E0,-8.633437300E0,-1.191182143E1,1.479211625E1
1.474946892E1,3.169104052E0,-6.143884079E0,-1.054916758E1,1.261251239E1
1.475945892E1,4.185761485E0,-3.319444445E0,-6.799240594E0,8.646905995E0
1.476944892E1,4.809797097E0,-8.895556283E-1,-4.589344495E0,6.707275171E0
1.477943892E1,5.252199479E0,1.310858041E0,-2.536304049E0,5.978025293E0
1.478942892E1,5.354607614E0,3.293174075E0,-7.349051066E-1,6.329052355E0
1.479941892E1,4.786242465E0,4.835428659E0,5.714688510E-1,6.827595763E0
1.480940892E1,3.625949058E0,6.024530128E0,1.459077503E0,7.181321396E0
1.481939892E1,2.584066445E0,6.288124949E0,2.094909288E0,7.113828764E0
1.482938892E1,1.501745805E0,6.220573236E0,2.485319837E0,6.864953498E0
1.483937892E1,4.209235132E-2,6.367592703E0,2.842319250E0,6.973290995E0
1.484936792E1,-1.375255474E0,6.497435389E0,2.804187802E0,7.209123627E0
1.485935792E1,-2.676993905E0,6.588471274E0,2.269392541E0,7.464877266E0
1.486934792E1,-3.509947608E0,6.789789739E0,1.299557858E0,7.753052789E0
1.487933792E1,-3.776650516E0,7.199977180E0,1.655218112E-1,8.132045129E0
1.488932792E1,-3.554852763E0,7.748189900E0,-8.867096423E-1,8.570745527E0
1.489931792E1,-2.764924334E0,8.138945289E0,-1.464155663E0,8.719575035E0
1.490930792E1,-1.734785123E0,8.140860837E0,-1.415038321E0,8.443069823E0
1.491929792E1,-5.790601449E-1,7.671156927E0,-1.036891576E0,7.762544904E0
1.492928792E1,5.706783074E-1,6.673728940E0,-4.427527772E-1,6.712701522E0
1.493927792E1,1.675603260E0,5.665656098E0,2.028299707E-1,5.911721010E0
1.494926692E1,2.625012158E0,4.983086057E0,6.582614118E-1,5.670550552E0
1.495925692E1,3.420469421E0,4.498335507E0,9.408240151E-1,5.728855315E0
1.496924692E1,3.934286773E0,3.825226260E0,9.127776991E-1,5.562744959E0
1.497923692E1,4.183821086E0,2.301039573E0,6.986083692E-1,4.825680848E0
1.498922692E1,4.539822671E0,-1.247374821E-1,8.784063037E-1,4.625705023E0
1.499921692E1,5.011815766E0,-2.851003534E0,1.498074777E0,5.957411054E0
1.500920692E1,5.520460963E0,-5.828640803E0,1.492285448E0,8.165504192E0
1.501919692E1,5.604457970E0,-8.983689610E0,-7.341804904E-1,1.061393655E1
1.502918692E1,3.699934170E0,-1.124379809E1,-2.750109828E0,1.215218550E1
1.503917692E1,6.819692400E-1,-1.180024837E1,-6.971924660E-1,1.184048229E1
1.504916692E1,-1.176242273E0,-1.129752581E1,2.383064022E0,1.160588771E1
1.505915592E1,-1.629797781E0,-9.125529613E0,4.788801792E0,1.043379864E1
1.506914592E1,-3.744665077E-1,-5.252939737E0,6.033027302E0,8.008184530E0
1.507913592E1,1.461529386E0,-2.229135193E0,6.093848285E0,6.651323085E0
1.508912592E1,2.311577425E0,-1.377954256E0,5.161016244E0,5.820501421E0
1.509911592E1,2.046836696E0,-2.114620398E0,2.438136899E0,3.821736703E0
1.510910592E1,5.765302008E-1,-1.330104736E0,-2.749015229E0,3.107836935E0
1.511909592E1,-2.632739838E0,-4.770100057E-2,-1.228119472E1,1.256030804E1
1.512908592E1,-4.874545654E0,-5.880503851E-1,-1.203580930E1,1.299875779E1
1.513907592E1,-4.325854047E0,-1.204223539E0,-2.995521562E0,5.397806684E0
1.514906592E1,-3.592569058E0,-1.408450409E0,1.743004115E0,4.234188037E0
1.515905592E1,-2.974416330E0,-1.223215880E0,2.301786993E0,3.954950436E0
1.516904492E1,-3.222265475E0,-1.718977906E0,1.686187305E0,4.022574731E0
1.517903492E1,-4.480942087E0,-2.708693415E0,5.563210541E-1,5.265487168E0
1.518902492E1,-5.873856736E0,-3.020026073E0,-5.346004021E-1,6.626352544E0
1.519901492E1,-6.936768860E0,-3.366097040E0,-1.470650166E0,7.849342865E0
1.520900492E1,-7.771330256E0,-4.561804694E0,-2.055970486E0,9.242870260E0
1.521899492E1,-8.268549993E0,-5.547648761E0,-2.191279880E0,1.019544179E1
1.522898492E1,-8.325331720E0,-4.721098636E0,-2.496879782E0,9.891123759E0
1.523897492E1,-7.339380648E0,-1.691189598E0,-2.561499116E0,7.955369776E0
1.524896492E1,-5.644602613E0,9.438441020E-1,-1.795397653E0,5.997985752E0
1.525895492E1,-3.838185737E0,1.688635535E0,-1.089048593E0,4.332341925E0
1.526894492E1,-2.215070739E0,1.405284142E0,-8.825068098E-1,2.767703049E0
1.527893392E1,-1.022343703E0,8.987427735E-1,-7.125903044E-1,1.536460270E0
1.528892392E1,-1.452290493E-1,4.649676651E-1,-5.847882966E-1,7.610937907E-1
1.529891392E1,5.069185138E-1,2.381167477E-1,-4.615190504E-1,7.257174375E-1
1.530890392E1,8.744810678E-1,2.840255767E-1,-3.736276516E-1,9.924642503E-1
1.531889392E1,8.432430491E-1,8.861642432E-1,-2.546028992E-1,1.249467303E0
1.532888392E1,4.908576742E-1,1.895289584E0,9.400159299E-2,1.960076571E0
1.533887392E1,-1.615322560E-2,2.878308862E0,5.794012203E-1,2.936090701E0
1.534886392E1,-4.139442766E-1,3.577658073E0,9.661179006E-1,3.728856521E0
1.535885438E1,-5.801864648E-1,3.889860213E0,1.307152660E0,4.144427209E0
1.536884437E1,-5.353754506E-1,3.934998379E0,1.501796529E0,4.245731024E0
1.537883438E1,-2.129944780E-1,3.857904010E0,1.453147695E0,4.128005356E0
1.538882338E1,2.945222059E-1,3.837985470E0,1.220413309E0,4.038104065E0
1.539881338E1,7.775516278E-1,3.858540187E0,9.286559594E-1,4.044171213E0
1.540880337E1,1.140451173E0,3.922022238E0,7.326350713E-1,4.149655583E0
1.541879337E1,1.486447588E0,3.972027041E0,8.137067163E-1,4.318407562E0
1.542878338E1,1.793615860E0,3.994811302E0,1.168953134E0,4.532331256E0
1.543877338E1,2.236039585E0,3.797812175E0,1.691773735E0,4.720736035E0
1.544876337E1,2.717545222E0,3.559680224E0,1.747681303E0,4.807365731E0
1.545875338E1,2.673163394E0,3.590317880E0,2.328164806E0,5.045447094E0
1.546874338E1,2.627154577E0,3.452962691E0,2.863869163E0,5.198715140E0
1.547873338E1,2.489714019E0,3.263578978E0,3.118014883E0,5.154768710E0
1.548872337E1,2.187264743E0,2.964515532E0,3.144834892E0,4.843806962E0
1.549871237E1,1.847046839E0,2.729085580E0,2.984899510E0,4.446247318E0
1.550870238E1,1.445280851E0,2.747107283E0,2.661058488E0,4.088602137E0
1.551869238E1,1.116044311E0,2.921768877E0,2.408657577E0,3.947647350E0
1.552868237E1,8.294333875E-1,2.818415832E0,2.265739932E0,3.710121964E0
1.553867237E1,7.709281942E-1,2.223467487E0,2.147144365E0,3.185650149E0
1.554866238E1,1.326316617E0,1.090016307E0,2.399571150E0,2.950456409E0
1.555865238E1,1.934575565E0,-1.102457428E-1,3.215748754E0,3.754434283E0
1.556864237E1,2.103691075E0,-1.110730653E0,4.563638381E0,5.146458393E0
1.557863237E1,2.016276078E0,-2.103753932E0,6.219520737E0,6.868303140E0
1.558862238E1,1.882883547E0,-3.420240503E0,7.495875528E0,8.451712577E0
1.559861238E1,1.693725536E0,-4.897954105E0,7.929942412E0,9.473259591E0
1.560860138E1,1.365644990E0,-6.044804764E0,7.252313268E0,9.539428631E0
1.561859137E1,1.127072159E0,-6.101097663E0,5.333664057E0,8.181788107E0
1.562858138E1,1.616501651E0,-4.543861343E0,3.124086632E0,5.746274513E0
1.563857138E1,2.680845466E0,-3.051526778E0,1.912133074E0,4.489432145E0
1.564856138E1,3.433651092E0,-1.852259924E0,7.053566408E-1,3.964638021E0
1.565855137E1,3.816286745E0,-9.999574918E-1,-2.948014104E-1,3.956117715E0
1.566854138E1,3.708428420E0,-7.139730978E-1,-4.492801702E-1,3.803163368E0
1.567853138E1,3.019736636E0,-4.358391756E-1,-4.013551847E-1,3.077312321E0
1.568852138E1,1.926490619E0,-2.173819363E-1,-6.982850182E-1,2.060636547E0
1.569851137E1,3.930901819E-1,-2.893699318E-1,-1.243701600E0,1.336057079E0
1.570850138E1,-1.504103841E0,-7.822264767E-1,-1.625347027E0,2.348608009E0
1.571849038E1,-3.882233105E0,-1.837634284E0,-1.962136123E0,4.722140596E0
1.572848038E1,-6.609114869E0,-3.325749498E0,-2.356372944E0,7.764889086E0
1.573847037E1,-9.273640755E0,-4.539276541E0,-2.567739850E0,1.063948929E1
1.574846037E1,-1.171034392E1,-5.463698532E0,-2.752910644E0,1.321221682E1
1.575845038E1,-1.314175751E1,-6.231509283E0,-3.085075763E0,1.486792490E1
1.576844038E1,-1.283289238E1,-7.040562201E0,-3.830220952E0,1.513020937E1
1.577843037E1,-9.579184670E0,-8.064297395E0,-4.961352541E0,1.346880434E1
1.578842037E1,-5.428286040E0,-8.454383277E0,-6.455730123E0,1.194233383E1
1.579841038E1,-1.931023381E0,-8.080666675E0,-7.571303440E0,1.124058099E1
1.580840038E1,1.180420108E0,-7.313441230E0,-8.217368730E0,1.106367765E1
1.581839037E1,3.314670486E0,-5.704305024E0,-8.156919630E0,1.049101873E1
1.582838038E1,5.001434619E0,-3.743587435E0,-6.341830455E0,8.902112595E0
1.583836938E1,6.478274063E0,-1.991452893E0,-5.126590762E0,8.497991074E0
1.584835938E1,7.270477644E0,1.170378685E-1,-3.486496473E0,8.064068495E0
1.585834938E1,7.466597350E0,2.164917562E0,-2.372928166E0,8.128205959E0
1.586833937E1,6.794960432E0,3.989111436E0,-1.831911614E0,8.089523934E0
1.587832938E1,5.573624432E0,5.495148366E0,-1.115823140E0,7.906137246E0
1.588831938E1,4.296580839E0,6.111775848E0,-2.525475298E-1,7.475171649E0
1.589830937E1,2.654407865E0,6.146453930E0,5.230012804E-1,6.715527334E0
1.590829937E1,6.225232297E-1,5.574095718E0,1.191092446E0,5.733827645E0
1.591828938E1,-8.176338525E-1,5.109754874E0,1.746912833E0,5.461668649E0
1.592827938E1,-1.890867335E0,5.100608659E0,2.062000573E0,5.817511009E0
1.593826937E1,-2.842867426E0,5.393945342E0,1.938967116E0,6.398135278E0
1.594825837E1,-3.593004676E0,5.787348350E0,1.230792117E0,6.922278004E0
1.595824838E1,-4.018194902E0,6.277248543E0,3.350290847E-1,7.460695948E0
1.596823838E1,-4.115554551E0,6.717584812E0,-3.106140357E-1,7.884175039E0
1.597822838E1,-4.042316128E0,6.893769021E0,-7.318154378E-1,8.024956376E0
1.598821837E1,-3.804883505E0,6.825208079E0,-9.941636319E-1,7.877116549E0
1.599820838E1,-3.316108024E0,6.447457482E0,-1.162391973E0,7.342849277E0
1.600819838E1,-2.339622133E0,5.722071204E0,-9.329098088E-1,6.251899815E0
1.601818838E1,-8.014854509E-1,5.149362743E0,-3.720216407E-1,5.224625890E0
1.602817837E1,6.690246740E-1,4.837491556E0,9.075346470E-2,4.884378647E0
1.603816838E1,1.855447826E0,4.293936144E0,5.119681692E-1,4.705601518E0
1.604815838E1,2.854087648E0,3.380536155E0,5.383383809E-1,4.456865402E0
1.605814738E1,3.668870544E0,1.630239977E0,2.657724698E-1,4.023546751E0
1.606813737E1,4.552379859E0,-8.788552237E-1,6.169484943E-1,4.677304174E0
1.607812737E1,5.215149767E0,-3.722527519E0,1.500338380E0,6.580730467E0
1.608811738E1,5.815757048E0,-6.727340891E0,1.994297710E0,9.113581560E0
1.609810738E1,6.047053603E0,-9.619605888E0,1.057934974E0,1.141152493E1
1.610809737E1,4.526246606E0,-1.111362737E1,-2.734568806E-1,1.200309962E1
1.611808737E1,1.512503366E0,-1.076412526E1,2.512267900E-1,1.087277214E1
1.612807738E1,-4.684227848E-1,-9.372085063E0,2.110750418E0,9.618246496E0
1.613806738E1,-9.313415855E-1,-7.290370456E0,4.286723018E0,8.508401305E0
1.614805737E1,1.635331732E-1,-5.091173007E0,5.873504149E0,7.774627752E0
1.615804738E1,1.894463080E0,-3.675625833E0,6.065316796E0,7.340795833E0
1.616803738E1,3.038514385E0,-3.687151864E0,4.548088295E0,6.596420672E0
1.617802638E1,3.416747961E0,-4.220379340E0,8.230260086E-1,5.492097979E0
1.618801638E1,2.631085076E0,-3.542720375E0,-5.350350257E0,6.935396470E0
1.619800637E1,-1.167118862E-1,-2.643634370E0,-1.189926044E1,1.218994763E1
1.620799638E1,-2.611388145E0,-2.464689106E0,-8.548046317E0,9.271630723E0
1.621798638E1,-3.536522326E0,-1.710409981E0,-1.941579506E0,4.382034168E0
1.622797637E1,-3.649742840E0,-3.660859859E-1,1.324108416E0,3.899731381E0
1.623796637E1,-3.688894627E0,1.233642635E0,1.471692724E0,4.158809588E0
1.624795638E1,-3.951239897E0,2.064645415E0,7.083514385E-1,4.514069026E0
1.625794638E1,-4.280976959E0,1.875337130E0,3.228230951E-1,4.684855156E0
1.626793637E1,-4.770992050E0,1.401705061E0,-3.082247903E-1,4.982182728E0
1.627792637E1,-5.346150202E0,8.698516810E-1,-9.278701667E-1,5.495353216E0
1.628791538E1,-5.674464344E0,-3.894035125E-1,-1.219287209E0,5.817030340E0
1.629790538E1,-6.260865229E0,-2.251661591E0,-1.697589376E0,6.866602000E0
1.630789538E1,-7.187355380E0,-4.055824658E0,-1.890803016E0,8.466577057E0
1.631788537E1,-7.748886888E0,-4.190423470E0,-1.842723116E0,9.000029185E0
1.632787538E1,-7.278223450E0,-1.874601551E0,-2.316117203E0,7.864544899E0
1.633786538E1,-5.405477221E0,6.748154640E-1,-2.629788163E0,6.048995427E0
1.634785538E1,-3.564697427E0,1.716802157E0,-1.919697617E0,4.397694434E0
1.635784537E1,-2.111724710E0,1.831074293E0,-1.129503139E0,3.014629606E0
1.636783563E1,-9.034098749E-1,1.635246363E0,-8.805561056E-1,2.065323007E0
1.637782563E1,-5.595712289E-2,1.320733404E0,-5.666473100E-1,1.438247926E0
1.638781562E1,4.326565361E-1,9.643304068E-1,-1.022911906E-1,1.061879607E0
1.639780462E1,6.833225781E-1,7.708770311E-1,1.403185576E-1,1.039649191E0
1.640779462E1,6.499531031E-1,1.027132427E0,5.099748534E-1,1.318148098E0
1.641778463E1,4.139933932E-1,1.610700921E0,7.884210169E-1,1.840477027E0
1.642777463E1,5.829586297E-2,2.336434523E0,9.532984650E-1,2.524104327E0
1.643776462E1,-2.955890304E-1,2.957406487E0,1.199214814E0,3.204955877E0
