"Time (s)","Linear Acceleration x (m/s^2)","Linear Acceleration y (m/s^2)","Linear Acceleration z (m/s^2)","Absolute acceleration (m/s^2)"
7.617500001E-3,-4.025948310E-1,7.421607703E-2,-3.165197235E-1,5.174701532E-1
1.760750000E-2,-7.014650264E-1,1.845761329E-1,-5.423204809E-1,9.056671774E-1
2.759650000E-2,-6.923015624E-1,1.325049233E-1,-6.301035601E-1,9.454467222E-1
3.758650000E-2,-3.640005764E-1,3.118787885E-2,-3.859951705E-1,5.314709541E-1
4.757650000E-2,8.256765515E-2,-2.691385657E-2,-1.086342502E-1,1.390797385E-1
5.756550000E-2,3.284299171E-1,-3.608930737E-2,3.259121060E-2,3.320102944E-1
6.755550000E-2,3.930685472E-1,-2.577335715E-2,2.151336819E-1,4.488314270E-1
7.754550000E-2,3.031573740E-1,3.940672517E-2,9.335781455E-2,3.196450608E-1
8.753550000E-2,1.089292422E-1,1.350335518E-1,-7.525834322E-2,1.891122897E-1
9.752450000E-2,-5.789825231E-2,2.026612785E-1,-1.154778314E-1,2.403308781E-1
1.075145000E-1,-1.119659936E-1,2.278589773E-1,-6.429422915E-2,2.618966307E-1
1.175045000E-1,-1.011512759E-1,1.435754567E-1,-3.883837581E-2,1.798719318E-1
1.274935000E-1,-1.180076292E-1,-3.156473190E-2,-4.698179305E-2,1.308794168E-1
1.374835000E-1,-1.899353984E-1,-1.588697264E-1,-9.962953806E-2,2.669102665E-1
1.474735000E-1,-2.430061895E-1,-1.355530769E-1,-1.748112828E-1,3.286116695E-1
1.574625000E-1,-2.341698772E-1,-8.033284932E-2,-2.611869371E-1,3.598715245E-1
1.674525000E-1,-1.825348699E-1,-7.816557884E-3,-2.575189787E-1,3.157468950E-1
1.774425000E-1,-2.018254191E-2,1.735102773E-2,-2.119902188E-1,2.136545015E-1
1.874325000E-1,7.012302607E-2,-3.181470037E-3,-2.000975668E-1,2.120528160E-1
1.974215000E-1,1.234043169E-1,-2.679457337E-2,-1.139154553E-1,1.700685319E-1
2.074115000E-1,6.383931577E-2,-2.529651672E-2,-1.505985475E-1,1.655152395E-1
2.174015000E-1,1.750276297E-2,-2.104003608E-2,-3.067788470E-1,3.079972253E-1
2.273905000E-1,-3.909156024E-2,-3.269265980E-2,-4.504753411E-1,4.533486440E-1
2.373805000E-1,-1.783769149E-1,3.233217895E-3,-5.146204662E-1,5.446677902E-1
2.473705000E-1,-2.980460304E-1,5.680102229E-2,-4.445439255E-1,5.382165866E-1
2.573605000E-1,-2.870468330E-1,6.868168741E-2,-4.175128323E-1,5.113022821E-1
2.673495000E-1,-2.361006278E-1,-2.304095328E-2,-3.788446105E-1,4.469872826E-1
2.773395000E-1,-1.856052428E-1,-9.383114666E-2,-3.112648308E-1,3.743519536E-1
2.873295000E-1,-1.603183740E-1,-3.025700212E-2,-1.797831702E-1,2.427744952E-1
2.973185000E-1,-7.795624852E-2,3.799725384E-2,8.943784118E-2,1.245796750E-1
3.073085000E-1,5.292314887E-3,3.256519049E-2,1.816601264E-1,1.846318005E-1
3.172985000E-1,1.029875940E-1,1.171325934E-1,2.191021872E-1,2.689465697E-1
3.272885000E-1,1.446431583E-1,1.895374954E-1,1.609691691E-1,2.876754748E-1
3.372775000E-1,1.284931487E-1,1.113260159E-1,7.465081751E-2,1.856790662E-1
3.472675000E-1,1.104363620E-2,4.198680907E-2,-5.953985810E-2,7.368750735E-2
3.572575000E-1,-7.913402393E-2,3.655679226E-2,-1.758684593E-1,1.962862904E-1
3.672465000E-1,-2.180888647E-1,1.708243588E-1,-1.730442542E-1,3.266313340E-1
3.772365000E-1,-3.277867234E-1,2.448623881E-1,-2.051852292E-1,4.577146528E-1
3.872265000E-1,-3.246135856E-1,2.272166607E-1,-2.722896302E-1,4.807733703E-1
3.972155000E-1,-2.329755834E-1,2.124673516E-1,-2.818907583E-1,4.229449107E-1
4.072055000E-1,-1.471380191E-1,2.473854616E-1,-2.641736948E-1,3.906877325E-1
4.171955000E-1,-5.232585579E-2,2.821182150E-1,-3.185077769E-1,4.286908983E-1
4.271855000E-1,6.719474047E-3,2.381132394E-1,-3.208127493E-1,3.995796369E-1
4.371745000E-1,1.138965981E-1,1.314132482E-1,1.074308932E-2,1.742334377E-1
4.471645000E-1,2.143897699E-1,-1.734547287E-2,1.332837725E-1,2.530383427E-1
4.571545000E-1,2.309044996E-1,-1.143534118E-1,8.357425332E-3,2.578050373E-1
4.671435000E-1,2.249380007E-1,-1.032629979E-1,8.669842064E-2,2.622536311E-1
4.771335000E-1,1.901384430E-1,4.264315903E-2,1.668619931E-1,2.565423771E-1
4.871235000E-1,6.646310762E-2,2.033863333E-1,1.176646900E-1,2.441891163E-1
4.971135000E-1,-1.373768234E-1,2.698095337E-1,1.321558446E-1,3.303554802E-1
5.071025000E-1,-2.706842771E-1,3.198184302E-1,1.158245713E-1,4.347058057E-1
5.170925000E-1,-3.462288415E-1,4.084633890E-1,-8.950917721E-3,5.355341910E-1
5.270825000E-1,-4.282031505E-1,4.331246057E-1,-1.240545273E-1,6.215660769E-1
5.370715000E-1,-3.828006904E-1,4.233471841E-1,-2.586433983E-1,6.266223857E-1
5.470615000E-1,-2.631502859E-1,3.545789579E-1,-1.479959518E-1,4.657006679E-1
5.570515000E-1,-3.273696707E-1,2.936106250E-1,1.255923450E-2,4.399270789E-1
5.670405000E-1,-2.041700064E-1,4.036204326E-1,1.653750461E-1,4.816053893E-1
5.770305000E-1,8.462295145E-2,4.758411473E-1,2.706173265E-1,5.539129704E-1
5.870205000E-1,-2.245373203E-1,7.004502422E-1,8.435485661E-2,7.403805047E-1
5.970105000E-1,-2.430285551E-1,9.358310777E-1,4.317794538E-1,1.058903292E0
6.069995000E-1,-3.147198775E-1,1.045185412E0,9.574406326E-1,1.451948247E0
6.169895000E-1,-3.432281967E-1,1.107809969E0,1.066344439E0,1.575480557E0
6.269795000E-1,-2.717509554E-1,1.162150045E0,5.381905925E-1,1.309232761E0
6.369685000E-1,1.457089595E-2,1.311253459E0,-7.078054547E-3,1.311353516E0
6.469585000E-1,3.585633602E-1,1.392644216E0,-4.384651601E-2,1.438731425E0
6.569485000E-1,5.944282356E-1,1.367832579E0,3.306091744E-1,1.527616876E0
6.669385000E-1,5.256311388E-1,1.319748294E0,6.181249541E-1,1.549226295E0
6.769275000E-1,2.423519226E-1,1.236287477E0,2.580212545E-1,1.285968953E0
6.869175000E-1,-2.238796547E-2,9.598327285E-1,-1.608200651E-1,9.734696611E-1
6.969075000E-1,-3.673207717E-1,5.111520441E-1,-2.567986017E-1,6.798135651E-1
7.068965000E-1,-7.866307457E-1,-4.418492362E-2,-2.425682330E-1,8.243661718E-1
7.168865000E-1,-1.065329509E0,-4.932749131E-1,2.032082856E-2,1.174163548E0
7.268765000E-1,-1.236941780E0,-7.323444647E-1,3.625256163E-1,1.482490541E0
7.368665000E-1,-1.190470522E0,-7.106048092E-1,5.523496252E-1,1.492403889E0
7.468555000E-1,-9.005258819E-1,-5.720240441E-1,7.659624463E-1,1.313338053E0
7.568455000E-1,-7.150435768E-1,-5.593583903E-1,7.987542164E-1,1.209205286E0
7.668355000E-1,-5.355778373E-1,-8.777449836E-1,1.052174882E0,1.471173633E0
7.768245000E-1,-1.822127980E-1,-1.171332074E0,1.463061649E0,1.883021434E0
7.868145000E-1,-2.219103856E-1,-7.234109424E-1,1.191527479E0,1.411490469E0
7.968045000E-1,-5.221157196E-1,7.755790696E-2,5.993670863E-1,7.986619796E-1
8.067935000E-1,-8.692527799E-1,4.387431952E-1,6.155305445E-2,9.756458196E-1
8.167835000E-1,-3.719835242E-1,4.935485628E-1,-5.338455266E-1,8.166718878E-1
8.267735000E-1,-7.455267200E-1,1.086044294E-1,-1.034104646E0,1.279444189E0
8.367635000E-1,-1.447022444E0,-4.670773405E-1,-1.397356487E0,2.065100566E0
8.467525000E-1,-1.379028389E0,-3.628261632E-1,-2.356797452E0,2.754606388E0
8.567425000E-1,-1.334191063E0,3.224710196E-2,-2.523272944E0,2.854472284E0
8.667325000E-1,-1.481343992E0,-2.066865018E-1,-2.756139477E0,3.135825912E0
8.767215000E-1,-1.642942322E0,-7.798033905E-1,-2.846563159E0,3.377909800E0
8.867115000E-1,-1.415028527E0,-9.159406042E-1,-2.663476312E0,3.152040448E0
8.967015000E-1,-9.402511342E-1,-8.871471602E-1,-2.416861805E0,2.740861774E0
9.066915000E-1,-7.553702152E-1,-9.172299153E-1,-2.461852037E0,2.733607567E0
9.166805000E-1,-6.924471581E-1,-1.125466222E0,-2.775462770E0,3.073979647E0
9.266707500E-1,-6.790206353E-1,-1.471477839E0,-3.066247728E0,3.468168275E0
9.366607500E-1,-8.462097801E-1,-1.618237397E0,-3.274836622E0,3.749575731E0
9.466497500E-1,-1.121856297E0,-1.480014189E0,-3.565205258E0,4.019911950E0
9.566397500E-1,-1.389583783E0,-1.297453884E0,-3.791286097E0,4.241247451E0
9.666297500E-1,-1.344886790E0,-1.104124469E0,-3.626309831E0,4.022180293E0
9.766187500E-1,-1.061483649E0,-7.909421901E-1,-3.611898783E0,3.846836350E0
9.866087500E-1,-8.486069924E-1,-5.744709577E-1,-4.043620934E0,4.171453101E0
9.965987500E-1,-1.217500519E0,-9.205385622E-1,-4.657336503E0,4.901069482E0
1.006588750E0,-2.012998713E0,-1.685123843E0,-5.664040512E0,6.242848798E0
1.016577750E0,-2.231473056E0,-2.602901496E0,-6.719360611E0,7.543498871E0
1.026567750E0,-1.414474942E0,-2.514145440E0,-5.642458439E0,6.337113215E0
1.036557750E0,-1.221255016E0,-1.320464724E0,-3.881802165E0,4.278256531E0
1.046546750E0,-1.829797699E0,-1.331469915E0,-4.648372137E0,5.169945384E0
1.056536750E0,-1.820309861E0,-2.061777502E0,-5.836151551E0,6.451753202E0
1.066526750E0,-1.829005255E0,-1.895568204E0,-6.259325657E0,6.790993795E0
1.076516750E0,-1.609551651E0,-1.575482118E0,-6.678406713E0,7.047972520E0
1.086505750E0,-1.658491676E0,-1.342101615E0,-6.752414922E0,7.081450322E0
1.096495750E0,-1.917543210E0,-1.361916367E0,-7.164024405E0,7.540227704E0
1.106485750E0,-1.991737945E0,-1.073171356E0,-6.794466927E0,7.161249725E0
1.116474750E0,-2.436168142E0,-7.973432833E-1,-6.753059285E0,7.223190516E0
1.126464750E0,-2.635333955E0,-7.675349088E-1,-6.045312887E0,6.639269748E0
1.136454750E0,-2.280481932E0,-9.403417660E-1,-5.105870569E0,5.670516268E0
1.146443750E0,-1.642050768E0,-7.335416821E-1,-4.183289866E0,4.553496264E0
1.156433750E0,-5.608134699E-1,-3.792330118E-1,-2.987310317E0,3.063062578E0
1.166423750E0,3.290663865E-1,-4.720539057E-1,-1.982753990E0,2.064566047E0
1.176413750E0,4.901469451E-1,-2.163393778E-1,-1.087256421E0,1.212094584E0
1.186402750E0,5.584453475E-1,1.534209985E-1,-5.204694360E-1,7.786447475E-1
1.196392750E0,1.866065785E-1,2.238694221E-2,-2.866480529E-1,3.427685758E-1
1.206382750E0,-1.950943968E-1,9.158435404E-2,9.941494524E-2,2.373454211E-1
1.216371750E0,-2.182879624E-1,2.460520041E-1,7.134556192E-1,7.856272296E-1
1.226361750E0,8.493870109E-2,2.750873767E-1,1.357784286E0,1.387971835E0
1.236351750E0,6.372693229E-1,3.151158071E-1,1.854228682E0,1.985843440E0
1.246340750E0,1.402163483E0,2.909410787E-1,2.524942909E0,2.902765205E0
1.256330750E0,2.228570936E0,2.772602020E-1,3.203810493E0,3.912518794E0
1.266320750E0,2.830283633E0,2.893994603E-1,3.780325491E0,4.731291400E0
1.276310750E0,3.037839031E0,2.450885291E-1,3.966545277E0,5.002201095E0
1.286299750E0,2.588487233E0,5.423701823E-2,3.780966931E0,4.582457718E0
1.296289750E0,1.876239941E0,1.544157560E-1,3.439770788E0,3.921242611E0
1.306279750E0,1.675054207E0,9.400700167E-2,3.101576021E0,3.526246974E0
1.316268750E0,1.932254805E0,9.760844797E-2,2.893882336E0,3.481047402E0
1.326258750E0,2.208638948E0,2.840711850E-1,2.751368734E0,3.539606242E0
1.336248750E0,2.525205157E0,6.399969028E-1,2.646938632E0,3.713831073E0
1.346237750E0,2.848971042E0,9.615158495E-1,2.741229662E0,4.068843667E0
1.356227750E0,3.037225074E0,1.238331078E0,3.046490571E0,4.476528209E0
1.366217750E0,3.418152462E0,1.467843795E0,3.411212987E0,5.047247339E0
1.376207750E0,3.701343641E0,1.612599219E0,4.039988644E0,5.711561016E0
1.386196750E0,3.734237153E0,1.669076744E0,4.981264064E0,6.445412009E0
1.396186750E0,4.095373763E0,1.658866336E0,6.170116442E0,7.589088265E0
1.406176750E0,4.543760479E0,1.765376878E0,7.393667952E0,8.855994614E0
1.416165750E0,4.761147970E0,2.043086585E0,8.431645210E0,9.896230279E0
1.426155750E0,4.858487154E0,2.265244527E0,9.228964520E0,1.067286355E1
1.436145750E0,5.113070830E0,2.326227916E0,1.006953451E1,1.153041001E1
1.446134750E0,5.638412751E0,2.565514399E0,1.098293509E1,1.260945778E1
1.456124750E0,6.609445821E0,2.839876283E0,1.198822933E1,1.398096255E1
1.466114750E0,6.973922653E0,3.024005104E0,1.270373323E1,1.480422379E1
1.476104750E0,6.811274164E0,3.155430631E0,1.316851671E1,1.515783726E1
1.486093750E0,6.593598697E0,3.068426986E0,1.349792311E1,1.533247261E1
1.496083750E0,6.455542427E0,2.918155590E0,1.357069522E1,1.530860636E1
1.506073750E0,6.358678038E0,2.851324546E0,1.321565696E1,1.494042928E1
1.516062750E0,6.426019835E0,2.794955633E0,1.223823289E1,1.410247681E1
1.526052750E0,6.408431411E0,2.781920435E0,1.093528496E1,1.297642214E1
1.536042750E0,6.364467366E0,2.871074687E0,9.929922885E0,1.213889959E1
1.546031750E0,6.421808671E0,2.851511950E0,9.437544642E0,1.176596770E1
1.556021750E0,6.517015375E0,2.841900589E0,9.523640800E0,1.188476430E1
1.566011750E0,6.721258033E0,2.839282206E0,1.025814815E1,1.258834526E1
1.576001750E0,6.764956030E0,2.531583007E0,1.154857368E1,1.362142051E1
1.585990750E0,6.768978914E0,2.299335402E0,1.303455700E1,1.486626029E1
1.595980750E0,6.817960455E0,1.925658853E0,1.403955771E1,1.572583631E1
1.605970750E0,6.573291317E0,1.676992413E0,1.439765991E1,1.591581205E1
1.615959750E0,6.416801115E0,1.508181250E0,1.411199302E1,1.557556722E1
1.625949750E0,6.206392568E0,1.246739521E0,1.315063826E1,1.459496334E1
1.635939750E0,5.759091681E0,9.914155868E-1,1.191621853E1,1.327201213E1
1.645928750E0,5.422760421E0,5.463492125E-1,1.068213677E1,1.199220055E1
1.655918750E0,5.288570330E0,2.005302608E-3,9.399044820E0,1.078475886E1
1.665908750E0,4.995212597E0,-5.210798854E-1,7.805877945E0,9.281993516E0
1.675897750E0,4.294103666E0,-9.462584174E-1,5.781916872E0,7.263972329E0
1.685887750E0,3.365416717E0,-1.393170465E0,3.925731711E0,5.355214570E0
1.695877750E0,1.951522257E0,-1.711328286E0,2.167733581E0,3.381738089E0
1.705867750E0,4.027231774E-1,-1.899789602E0,3.633956820E-1,1.975713266E0
1.715856750E0,-1.405589951E0,-2.081640347E0,-1.425695602E0,2.888168554E0
1.725846750E0,-3.694500937E0,-2.069158004E0,-3.225754509E0,5.323179893E0
1.735836750E0,-5.667161756E0,-2.079619988E0,-4.616876110E0,7.599808332E0
1.745825750E0,-7.359840056E0,-2.156401677E0,-6.059225167E0,9.774022890E0
1.755815750E0,-9.339316682E0,-1.772417218E0,-7.533540952E0,1.212924310E1
1.765805750E0,-1.080821210E1,-1.716985175E0,-8.508299283E0,1.386205770E1
1.775794750E0,-1.161985007E1,-1.509771254E0,-9.073620957E0,1.481995014E1
1.785784750E0,-1.152295352E1,-1.559320267E0,-9.531095999E0,1.503501674E1
1.795774750E0,-1.078325384E1,-1.682408250E0,-9.958231595E0,1.477414760E1
1.805763750E0,-1.008238085E1,-1.645199786E0,-1.037961704E1,1.456356878E1
1.815753750E0,-9.276111204E0,-1.743291798E0,-1.093666724E1,1.444631426E1
1.825743750E0,-8.263441281E0,-1.444807080E0,-1.145943639E1,1.420178199E1
1.835733750E0,-6.963623368E0,-1.258078295E0,-1.183807751E1,1.379184145E1
1.845722750E0,-5.709967468E0,-8.968507607E-1,-1.191397437E1,1.324201099E1
1.855712750E0,-4.913934546E0,-7.912247568E-1,-1.167936888E1,1.269568615E1
1.865702750E0,-4.782909552E0,-7.584348871E-1,-1.100627249E1,1.202453664E1
1.875691750E0,-4.650546132E0,-8.508762968E-1,-9.981835635E0,1.104484551E1
1.885681750E0,-4.126478612E0,-1.161753750E0,-8.820162284E0,9.806771142E0
1.895671750E0,-3.684286144E0,-1.399968584E0,-7.892340138E0,8.821729381E0
1.905660750E0,-3.519366888E0,-1.523590856E0,-7.362051473E0,8.301028507E0
1.915650750E0,-3.590312033E0,-1.584347812E0,-7.183137199E0,8.185228066E0
1.925640667E0,-3.593080397E0,-1.544208139E0,-7.371726860E0,8.344888401E0
1.935630667E0,-3.269967938E0,-1.593663304E0,-7.738982874E0,8.551275283E0
1.945619667E0,-2.697816132E0,-1.576423227E0,-8.202465931E0,8.777458028E0
1.955609667E0,-2.479631081E0,-1.527105033E0,-8.648580419E0,9.125708922E0
1.965599667E0,-2.816424855E0,-1.654003792E0,-8.937744529E0,9.515842305E0
1.975588667E0,-3.346507114E0,-1.683005251E0,-9.176287538E0,9.911400987E0
1.985578667E0,-3.492426719E0,-1.705022795E0,-9.498538118E0,1.026286381E1
1.995568667E0,-3.295671421E0,-1.699881777E0,-9.656740385E0,1.034425846E1
2.005557667E0,-3.147847962E0,-1.556468142E0,-9.625975844E0,1.024650920E1
2.015547667E0,-2.977669428E0,-1.435414844E0,-9.500277665E0,1.005893666E1
2.025537667E0,-2.762550656E0,-1.373771743E0,-9.342601647E0,9.838858698E0
2.035527667E0,-2.405791857E0,-1.356735295E0,-8.989669558E0,9.404399177E0
2.045516667E0,-2.361021188E0,-1.264472518E0,-8.522489306E0,8.933427997E0
2.055506667E0,-2.550546989E0,-1.358162162E0,-8.065590799E0,8.567592972E0
2.065496667E0,-2.922819329E0,-1.413417765E0,-7.748876363E0,8.401530069E0
2.075485667E0,-3.346560908E0,-1.502424666E0,-7.563983896E0,8.406580884E0
2.085475667E0,-3.676884738E0,-1.609645791E0,-7.542387789E0,8.543889894E0
2.095465667E0,-3.821630515E0,-1.753031944E0,-7.633132483E0,8.714510445E0
2.105454667E0,-3.884051589E0,-1.933646588E0,-7.762816710E0,8.893040489E0
2.115444667E0,-3.974333476E0,-1.948366661E0,-7.880231139E0,9.038224495E0
2.125434667E0,-3.818030969E0,-1.991372786E0,-7.967562228E0,9.056763987E0
2.135423667E0,-3.689850647E0,-1.995519193E0,-8.009753982E0,9.041750577E0
2.145413667E0,-3.610070067E0,-2.007677308E0,-7.861865619E0,8.881008112E0
2.155403667E0,-3.501811793E0,-2.028113181E0,-7.674245426E0,8.675826863E0
2.165393667E0,-3.359152010E0,-2.102763852E0,-7.473342698E0,8.459099782E0
2.175382667E0,-3.253692798E0,-2.166261545E0,-7.249022455E0,8.235747231E0
2.185372667E0,-3.210055320E0,-2.201623166E0,-6.974511468E0,7.987202886E0
2.195362667E0,-3.101970708E0,-2.257307662E0,-6.679383198E0,7.702715110E0
2.205351667E0,-2.893736156E0,-2.192139274E0,-6.344088065E0,7.309352701E0
2.215341667E0,-2.511614766E0,-2.209093276E0,-5.925230373E0,6.804164666E0
2.225331667E0,-1.897639873E0,-2.147610388E0,-5.719888439E0,6.397686396E0
2.235320667E0,-1.377750480E0,-2.059536118E0,-5.677651661E0,6.194805388E0
2.245310667E0,-8.886294293E-1,-1.992652449E0,-5.698364838E0,6.101777435E0
2.255300667E0,-3.501660642E-1,-1.734500510E0,-5.476517383E0,5.755288953E0
2.265289667E0,5.624670625E-2,-1.519128554E0,-4.767733104E0,5.004217642E0
2.275279667E0,-1.289170718E-1,-1.183715892E0,-3.625706983E0,3.816222485E0
2.285269667E0,-2.792206272E-1,-9.710131896E-1,-2.060502078E0,2.294885528E0
2.295259667E0,-4.897072345E-2,-3.515331432E-1,-1.881791872E-1,4.017276304E-1
2.305248667E0,9.877686784E-1,1.147992620E-1,1.769732323E0,2.029979883E0
2.315238667E0,2.035466639E0,7.529950762E-1,3.426846102E0,4.056279112E0
2.325228667E0,3.335015581E0,1.523263997E0,5.038797158E0,6.231543864E0
2.335217667E0,4.602497222E0,2.280343353E0,6.458973573E0,8.252350338E0
2.345207667E0,5.382823938E0,2.487374256E0,8.044938433E0,9.994141215E0
2.355197667E0,5.391273165E0,2.112232980E0,9.517946196E0,1.114085519E1
2.365186667E0,4.594624531E0,1.666705552E0,1.087217479E1,1.192026286E1
2.375176667E0,3.453672251E0,1.528557774E0,1.187024539E1,1.245660734E1
2.385166667E0,2.456005698E0,1.515739215E0,1.241212089E1,1.274324034E1
2.395156667E0,1.895004825E0,1.494709265E0,1.292483283E1,1.314825094E1
2.405145667E0,1.653901612E0,1.481732540E0,1.380967092E1,1.398706305E1
2.415135667E0,1.726596828E0,1.276872123E0,1.481041954E1,1.496529539E1
2.425125667E0,2.057058945E0,8.974465920E-1,1.537403968E1,1.553698806E1
2.435114667E0,2.696719779E0,5.684065180E-1,1.517892511E1,1.542709146E1
2.445104667E0,2.946414014E0,4.798049748E-1,1.442066988E1,1.472641464E1
2.455094667E0,2.872633262E0,8.265887171E-1,1.330492874E1,1.363658314E1
2.465083667E0,3.281629040E0,1.181262838E0,1.199512788E1,1.249189993E1
2.475073667E0,4.044275238E0,1.766246213E0,1.097343804E1,1.182760036E1
2.485063667E0,4.808552809E0,2.228842539E0,1.037598358E1,1.165122115E1
2.495052667E0,5.461514597E0,2.504425322E0,1.075995620E1,1.232383647E1
2.505042667E0,5.926912617E0,2.593343345E0,1.165081342E1,1.332648401E1
2.515032667E0,6.180582374E0,2.412235781E0,1.231898878E1,1.399199645E1
2.525022667E0,6.306772304E0,2.351128284E0,1.278646315E1,1.444980349E1
2.535011667E0,6.344656999E0,2.214032712E0,1.301997054E1,1.465183422E1
2.545001667E0,6.456786715E0,2.199658501E0,1.294621493E1,1.463328648E1
2.554991667E0,6.585782139E0,2.122952972E0,1.261496080E1,1.438807464E1
2.564980667E0,6.106609833E0,2.051483040E0,1.196140348E1,1.358581759E1
2.574970667E0,5.287524848E0,1.954319273E0,1.125959844E1,1.259189580E1
2.584960667E0,4.563703577E0,1.741180953E0,1.059875665E1,1.167016469E1
2.594949667E0,4.256463677E0,1.503248685E0,1.007478181E1,1.103985815E1
2.604939667E0,4.349022470E0,1.345313344E0,9.844531317E0,1.084613578E1
2.614929667E0,4.909242155E0,1.343628176E0,9.791631557E0,1.103549019E1
2.624918667E0,5.559912711E0,1.464886273E0,9.713912120E0,1.128798520E1
2.634908667E0,6.006714832E0,1.590591177E0,1.007006076E1,1.183286640E1
2.644898667E0,6.176926110E0,1.774079435E0,1.071747150E1,1.249663832E1
2.654888667E0,6.003911092E0,1.816150444E0,1.123650076E1,1.286873344E1
2.664877667E0,5.604293078E0,1.827062226E0,1.149743393E1,1.292041966E1
2.674867667E0,5.151502240E0,1.744442238E0,1.160571735E1,1.281693135E1
2.684857667E0,4.728313808E0,1.588364849E0,1.130741580E1,1.235870164E1
2.694846667E0,4.279792898E0,1.388283070E0,1.077340362E1,1.167519519E1
2.704836667E0,3.759302997E0,1.143470091E0,9.902215269E0,1.065334455E1
2.714826667E0,3.135537819E0,9.996516824E-1,8.724408866E0,9.324495212E0
2.724815667E0,2.690735739E0,7.479471749E-1,7.226667965E0,7.747529520E0
2.734805667E0,2.191113088E0,4.317177656E-1,5.517750193E0,5.952556089E0
2.744795667E0,1.680784478E0,1.182391790E-1,3.708982444E0,4.073765793E0
2.754784667E0,1.044624080E0,-7.707975090E-2,1.546714840E0,1.868022364E0
2.764774667E0,4.724319282E-1,-1.044248396E-1,-7.257558221E-1,8.722488104E-1
2.774764667E0,-2.339830586E-1,-1.373976103E0,-3.206482086E0,3.496296007E0
2.784754667E0,-1.603431078E0,-1.752818374E0,-5.512574823E0,6.002653134E0
2.794743667E0,-2.837543244E0,-2.379050785E0,-8.013536546E0,8.827700849E0
2.804733667E0,-4.089011115E0,-2.778337262E0,-9.971465013E0,1.112965787E1
2.814723667E0,-5.492797201E0,-3.057739737E0,-1.126851427E1,1.290348818E1
2.824712667E0,-6.422732531E0,-3.657172605E0,-1.163916108E1,1.378754784E1
2.834702667E0,-6.769390558E0,-4.467343217E0,-1.122606231E1,1.384941439E1
2.844692667E0,-7.075825589E0,-5.215055627E0,-1.059118216E1,1.376362062E1
2.854681667E0,-7.637982164E0,-5.959137207E0,-1.026182605E1,1.411223447E1
2.864671667E0,-8.230232019E0,-6.434509993E0,-1.042665438E1,1.475990378E1
2.874661667E0,-8.536707981E0,-6.325435447E0,-1.106956276E1,1.534345907E1
2.884650667E0,-8.450958563E0,-5.781305838E0,-1.203632502E1,1.580238330E1
2.894640667E0,-7.748019746E0,-5.284495990E0,-1.294546765E1,1.598570738E1
2.904630667E0,-6.777453868E0,-4.597092056E0,-1.360394132E1,1.587873911E1
2.914620667E0,-5.672645275E0,-3.986593917E0,-1.379825716E1,1.544227108E1
2.924609167E0,-4.388071345E0,-3.462781336E0,-1.325603082E1,1.438639558E1
2.934599167E0,-2.903044046E0,-3.123881979E0,-1.174942788E1,1.249941434E1
2.944589167E0,-1.740918998E0,-2.911765753E0,-9.839575217E0,1.040799785E1
2.954578167E0,-1.233966863E0,-3.111495237E0,-7.967235369E0,8.641812093E0
2.964568167E0,-1.139162740E0,-3.493623936E0,-6.189492946E0,7.198119399E0
2.974558167E0,-1.205063491E0,-3.850793211E0,-4.783246352E0,6.257813679E0
2.984547167E0,-1.355229345E0,-4.190859379E0,-4.040096233E0,5.976815748E0
2.994537167E0,-1.539814833E0,-4.464882709E0,-3.821914982E0,6.075626837E0
3.004527167E0,-1.770306812E0,-4.610107081E0,-3.970824269E0,6.336759336E0
3.014516167E0,-1.965636851E0,-4.714615828E0,-4.321941968E0,6.691077119E0
3.024506167E0,-1.958551488E0,-4.772493030E0,-4.849828012E0,7.080497539E0
3.034496167E0,-1.972688886E0,-4.710989677E0,-5.463634213E0,7.479052345E0
3.044486167E0,-1.982655757E0,-4.638240374E0,-6.165881304E0,7.966322230E0
3.054475167E0,-1.998916571E0,-4.681275004E0,-7.159204545E0,8.784316299E0
3.064465167E0,-2.017102874E0,-4.749774551E0,-8.127094737E0,9.626979337E0
3.074455167E0,-2.062654438E0,-4.795825467E0,-8.831718137E0,1.025932408E1
3.084444167E0,-2.072758134E0,-4.764581163E0,-9.340254575E0,1.068821386E1
3.094434167E0,-2.064406556E0,-4.693460309E0,-9.736643171E0,1.100420667E1
3.104424167E0,-2.084465429E0,-4.659210536E0,-9.969530754E0,1.120021350E1
3.114413167E0,-2.127536897E0,-4.547743310E0,-1.010743266E1,1.128576880E1
3.124403167E0,-2.235681443E0,-4.430303738E0,-1.015302340E1,1.130087372E1
3.134393167E0,-2.385906646E0,-4.484189630E0,-1.005320441E1,1.126354412E1
3.144382167E0,-2.518830230E0,-4.389267686E0,-9.798844097E0,1.102848685E1
3.154372167E0,-2.535458542E0,-4.263019283E0,-9.468148384E0,1.068867238E1
3.164362167E0,-2.486560324E0,-4.139519949E0,-9.278571712E0,1.045994745E1
3.174352167E0,-2.400204550E0,-3.971934071E0,-9.167247743E0,1.027500235E1
3.184341167E0,-2.230549926E0,-3.764424866E0,-9.004886937E0,1.001170496E1
3.194331167E0,-1.981655591E0,-3.660871261E0,-8.672134758E0,9.619504069E0
3.204321167E0,-1.674717407E0,-3.598395224E0,-8.139027734E0,9.055213915E0
3.214310167E0,-1.527298576E0,-3.509764883E0,-7.676742772E0,8.578080791E0
3.224300167E0,-1.679830651E0,-3.589959738E0,-7.339419240E0,8.341265894E0
3.234290167E0,-2.006529354E0,-3.687622565E0,-7.064367970E0,8.217664817E0
3.244279167E0,-2.314725858E0,-3.752029061E0,-6.765250145E0,8.074917175E0
3.254269167E0,-2.542510284E0,-3.774964764E0,-6.474784445E0,7.914388866E0
3.264259167E0,-2.766322988E0,-3.459329140E0,-6.355151582E0,7.746447740E0
3.274248167E0,-2.586702662E0,-3.284271689E0,-6.098203291E0,7.393615798E0
3.284238167E0,-2.332381964E0,-2.710612471E0,-5.730919796E0,6.755062346E0
3.294228167E0,-2.037872330E0,-1.455822796E0,-5.138093405E0,5.715973013E0
3.304218167E0,-1.199346376E0,-2.066613588E-1,-3.304870845E0,3.521833606E0
3.314207167E0,2.536598164E-1,1.098590080E0,1.744551873E-1,1.140911074E0
3.324197167E0,2.120963457E0,2.757812365E0,5.171347105E0,6.232723795E0
3.334187167E0,4.385790639E0,4.275675581E0,1.155506526E1,1.307807686E1
3.344176167E0,6.414987309E0,5.009177502E0,1.956536596E1,2.119074011E1
3.354166167E0,8.992508381E0,4.327258841E0,2.748706379E1,2.924258970E1
3.364156167E0,1.033429410E1,2.289913637E0,3.355405289E1,3.518402769E1
3.374145167E0,8.947829806E0,7.628461727E-1,3.711040664E1,3.818151219E1
3.384135167E0,5.992582111E0,3.935500655E-1,3.690992666E1,3.739530195E1
3.394125167E0,3.797043558E0,8.910528079E-1,3.440153664E1,3.462191846E1
3.404114167E0,2.893920928E0,2.044556428E0,3.046232358E1,3.066770529E1
3.414104167E0,2.615766248E0,3.467585116E0,2.600326266E1,2.636353634E1
3.424094167E0,2.754920040E0,5.025119351E0,2.229735585E1,2.302202178E1
3.434083167E0,2.794174445E0,6.380612113E0,1.972054170E1,2.091457355E1
3.444073167E0,2.974750206E0,7.350340669E0,1.834799788E1,1.998813830E1
3.454063167E0,3.665235623E0,7.765171384E0,1.741585464E1,1.941761653E1
3.464053167E0,4.744654436E0,7.520300517E0,1.647615212E1,1.872245321E1
3.474042167E0,5.264537689E0,7.288340887E0,1.485091853E1,1.736044501E1
3.484032167E0,5.214564461E0,7.103513324E0,1.255999464E1,1.534291528E1
3.494022167E0,4.728712295E0,6.714903864E0,9.987278223E0,1.293044393E1
3.504011167E0,4.060778712E0,6.408313297E0,7.373193342E0,1.057924303E1
3.514001167E0,3.283962956E0,5.889358875E0,5.084420058E0,8.445133982E0
3.523991167E0,2.253631518E0,5.029621122E0,3.170723439E0,6.358414172E0
3.533980167E0,1.044283479E0,3.811564826E0,1.659568441E0,4.286341309E0
3.543970167E0,-1.892065430E-1,2.410447994E0,4.160387492E-1,2.453394972E0
3.553960167E0,-1.284749054E0,1.013971221E0,-5.944127405E-1,1.741276622E0
3.563949167E0,-2.247723199E0,-3.170942125E-1,-1.489886336E0,2.715247615E0
3.573939167E0,-3.026331711E0,-1.534556432E0,-2.357683890E0,4.131854353E0
3.583929167E0,-3.563486177E0,-2.418001720E0,-3.243843455E0,5.391445670E0
3.593919167E0,-3.845478384E0,-3.132546091E0,-4.129816495E0,6.454140787E0
3.603908167E0,-3.908009385E0,-3.815287456E0,-5.010688423E0,7.411879262E0
3.613898167E0,-4.023002190E0,-4.342042064E0,-5.986218002E0,8.418591442E0
3.623888167E0,-4.200351165E0,-4.789103800E0,-6.818685510E0,9.331288078E0
3.633877167E0,-4.311041881E0,-5.217655299E0,-7.552564868E0,1.014151098E1
3.643867167E0,-4.489700046E0,-5.493813447E0,-8.297473245E0,1.091730072E1
3.653857167E0,-4.775001778E0,-5.748982430E0,-8.944462395E0,1.165567881E1
3.663846167E0,-5.151330916E0,-5.957583017E0,-9.487844145E0,1.233078230E1
3.673836167E0,-5.487083886E0,-6.115144429E0,-9.998223041E0,1.294092520E1
3.683826167E0,-5.591734428E0,-6.185637292E0,-1.053632943E1,1.343666032E1
3.693815167E0,-5.535826861E0,-6.200567572E0,-1.103274050E1,1.381353612E1
3.703805167E0,-5.471893405E0,-6.119473708E0,-1.151587839E1,1.414231349E1
3.713795167E0,-5.356899723E0,-5.956028827E0,-1.196786465E1,1.440140404E1
3.723784167E0,-5.084736392E0,-5.841223426E0,-1.217155475E1,1.442640566E1
3.733774167E0,-4.775173979E0,-5.741733052E0,-1.208051945E1,1.420242004E1
3.743764167E0,-4.544292283E0,-5.582421568E0,-1.179668507E1,1.381939947E1
3.753754167E0,-4.410966411E0,-5.446233484E0,-1.137711928E1,1.336251949E1
3.763743167E0,-4.344484738E0,-5.409801237E0,-1.095993331E1,1.297153172E1
3.773733167E0,-4.306994146E0,-5.477633032E0,-1.056150287E1,1.265306307E1
3.783723167E0,-4.404934715E0,-5.413935218E0,-1.012910361E1,1.230093022E1
3.793712167E0,-4.505395435E0,-5.414672552E0,-9.753121794E0,1.203082090E1
3.803702167E0,-4.546239991E0,-5.538944011E0,-9.461329361E0,1.186865418E1
3.813692167E0,-4.567911818E0,-5.499517990E0,-9.191198523E0,1.164425381E1
3.823681167E0,-4.579170047E0,-5.378863034E0,-8.902414482E0,1.136459192E1
3.833671167E0,-4.310354248E0,-5.326438068E0,-8.503855984E0,1.092088196E1
3.843661167E0,-3.892782651E0,-5.209379150E0,-8.023373317E0,1.032791883E1
3.853650167E0,-3.572155843E0,-5.067726842E0,-7.508711920E0,9.737705449E0
3.863640167E0,-3.327391396E0,-4.865866340E0,-7.023519906E0,9.169406775E0
3.873630167E0,-3.115638574E0,-4.662158117E0,-6.639137982E0,8.690286254E0
3.883620167E0,-3.062035979E0,-4.469749931E0,-6.279288052E0,8.293623287E0
3.893609167E0,-3.025578005E0,-4.216179577E0,-5.818469571E0,7.796465907E0
3.903599167E0,-3.069918318E0,-4.085976118E0,-5.462698073E0,7.480686436E0
3.913589167E0,-3.126005980E0,-3.932151954E0,-5.215051534E0,7.240890475E0
3.923578250E0,-3.072052844E0,-3.581769543E0,-4.938192304E0,6.830250725E0
3.933568250E0,-3.021860637E0,-3.370173134E0,-4.597749283E0,6.452054489E0
3.943558250E0,-2.920236906E0,-3.183068081E0,-4.288837956E0,6.087186297E0
3.953547250E0,-2.639472614E0,-2.801149881E0,-3.939211298E0,5.507326210E0
3.963537250E0,-2.476903939E0,-2.300791359E0,-3.327397828E0,4.743444983E0
3.973527250E0,-2.437895702E0,-1.864736421E0,-2.402582905E0,3.897817593E0
3.983516250E0,-2.407878728E0,-1.286108531E0,-1.169095221E0,2.969636132E0
3.993506250E0,-2.214243211E0,-3.243459293E-1,2.815399253E-1,2.255512804E0
4.003496250E0,-1.336226771E0,1.004591703E0,2.259711453E0,2.810872164E0
4.013485250E0,2.228596079E-1,2.664900986E0,4.364634243E0,5.118729896E0
4.023475250E0,1.979922476E0,4.339597343E0,7.209711040E0,8.644774802E0
4.033465250E0,2.814675368E0,6.117609615E0,1.100710748E1,1.290364134E1
4.043455250E0,2.777199686E0,7.173830770E0,1.528233312E1,1.710924871E1
4.053444250E0,3.102760667E0,7.690819359E0,2.043870842E1,2.205712194E1
4.063434250E0,4.095738922E0,8.020483623E0,2.528202264E1,2.683810544E1
4.073424250E0,6.023844250E0,8.210777164E0,2.893733700E1,3.067691369E1
4.083413250E0,8.553615789E0,8.411092247E0,3.080552240E1,3.305890237E1
4.093403250E0,1.003839926E1,8.761006004E0,3.058330949E1,3.335960889E1
4.103393250E0,9.591652688E0,9.152287642E0,2.913160021E1,3.200647280E1
4.113382250E0,8.123688734E0,9.299491296E0,2.773304914E1,3.035781401E1
4.123372250E0,7.046483676E0,9.226631480E0,2.690676974E1,2.930457163E1
4.133362250E0,6.345729963E0,8.848242368E0,2.611286053E1,2.829206897E1
4.143351250E0,5.829099809E0,8.622085515E0,2.515297693E1,2.722115008E1
4.153341250E0,5.808264425E0,8.313688159E0,2.373948037E1,2.581503970E1
4.163331250E0,6.212998753E0,7.968487258E0,2.193423440E1,2.414971597E1
4.173320250E0,6.754979510E0,7.795993227E0,1.950645877E1,2.206601895E1
4.183310250E0,6.786935713E0,7.446786983E0,1.665563240E1,1.946605311E1
4.193300250E0,6.415031163E0,7.357769557E0,1.407809788E1,1.713132329E1
4.203290250E0,5.592501583E0,7.216371603E0,1.210585894E1,1.516258269E1
4.213279250E0,3.835133783E0,6.783179462E0,1.119682039E1,1.364142814E1
4.223269250E0,1.102816447E0,5.937037071E0,1.204935028E1,1.347781345E1
4.233259250E0,-1.241000771E0,4.597560418E0,1.374860143E1,1.454997203E1
4.243248250E0,-2.284648073E0,3.155881744E0,1.374520771E1,1.428670506E1
4.253238250E0,-1.637822061E0,1.815295289E0,1.131603810E1,1.157715321E1
4.263228250E0,-5.182550955E-1,5.750441310E-1,7.451507440E0,7.491610456E0
4.273217250E0,-6.058884859E-1,-1.249818957E-1,3.927572415E0,3.975996278E0
4.283207250E0,-2.071111266E0,-1.320858534E0,2.037283954E0,3.191346903E0
4.293197250E0,-4.110828246E0,-2.094036444E0,1.055370970E0,4.732621407E0
4.303186250E0,-5.816282712E0,-3.361956627E0,-2.279706591E-1,6.721894641E0
4.313176250E0,-6.253057442E0,-4.637781660E0,-1.886301244E0,8.010485534E0
4.323166250E0,-5.798908880E0,-5.238797661E0,-4.528431126E0,9.032111248E0
4.333155250E0,-5.308525123E0,-5.570294443E0,-8.000318331E0,1.110016723E1
4.343145250E0,-5.358427016E0,-5.925271888E0,-1.160347903E1,1.408766527E1
4.353135250E0,-6.135861699E0,-6.472442050E0,-1.438058604E1,1.692165949E1
4.363124250E0,-7.275356560E0,-7.394927443E0,-1.566875104E1,1.879163442E1
4.373114250E0,-8.559149010E0,-8.121341661E0,-1.555950400E1,1.952724729E1
4.383104250E0,-9.360806369E0,-8.309188727E0,-1.464107365E1,1.926209622E1
4.393094250E0,-9.860049827E0,-8.694928374E0,-1.311748338E1,1.857123400E1
4.403083250E0,-9.929676132E0,-8.808974222E0,-1.205957823E1,1.793404366E1
4.413073250E0,-9.338663548E0,-8.569726038E0,-1.109291654E1,1.684350434E1
4.423063250E0,-8.310516629E0,-8.135608867E0,-1.006575955E1,1.538090809E1
4.433052250E0,-7.200519801E0,-7.521571702E0,-8.588728319E0,1.349769537E1
4.443042250E0,-5.824368827E0,-6.869357480E0,-6.948705366E0,1.137522970E1
4.453032250E0,-4.301833393E0,-6.235948489E0,-5.521078429E0,9.374173623E0
4.463021250E0,-2.935278869E0,-5.677978520E0,-4.388641741E0,7.753417211E0
4.473011250E0,-2.306872755E0,-5.216780555E0,-3.643091340E0,6.768203291E0
4.483001250E0,-2.213546516E0,-4.975695761E0,-3.329190000E0,6.382855359E0
4.492990250E0,-2.452708161E0,-4.818948574E0,-3.225717672E0,6.296292336E0
4.502980250E0,-2.876742977E0,-4.808288515E0,-3.289986173E0,6.497637849E0
4.512970250E0,-3.295945070E0,-4.820991883E0,-3.575318602E0,6.847490033E0
4.522959250E0,-3.675719388E0,-4.835240086E0,-4.042743267E0,7.296179331E0
4.532949250E0,-3.998174036E0,-4.899850942E0,-4.616787232E0,7.829984624E0
4.542939250E0,-4.207445299E0,-4.911205650E0,-5.382347975E0,8.413810469E0
4.552929250E0,-4.227122934E0,-4.973176780E0,-6.124577742E0,8.950503232E0
4.562918250E0,-4.227323493E0,-4.984918574E0,-6.751108069E0,9.396655643E0
4.572908250E0,-4.455844960E0,-4.844415829E0,-7.258055234E0,9.798075567E0
4.582898250E0,-4.946628667E0,-4.775866581E0,-7.733459594E0,1.034816090E1
4.592887250E0,-5.381334068E0,-4.719956967E0,-8.260866752E0,1.093062988E1
4.602877250E0,-5.722839528E0,-4.719088363E0,-8.704528917E0,1.143632419E1
4.612867250E0,-6.025025387E0,-4.690142891E0,-9.066755156E0,1.185345605E1
4.622856250E0,-6.290814668E0,-4.566038955E0,-9.445109770E0,1.223246335E1
4.632846250E0,-6.406939786E0,-4.435575880E0,-9.741882861E0,1.247507485E1
4.642836250E0,-6.327004840E0,-4.369806690E0,-9.955667006E0,1.257940803E1
4.652825250E0,-6.289778541E0,-4.242973858E0,-1.003095225E1,1.257712782E1
4.662815250E0,-6.351410533E0,-4.119804600E0,-9.931325047E0,1.248777093E1
4.672805250E0,-6.463560129E0,-4.064929650E0,-9.648095861E0,1.230394312E1
4.682794250E0,-6.600477362E0,-4.048051077E0,-9.280600111E0,1.208646174E1
4.692784250E0,-6.546718061E0,-4.086482779E0,-8.858370915E0,1.174859967E1
4.702774250E0,-6.528579413E0,-3.953527328E0,-8.500576866E0,1.142420827E1
4.712763250E0,-6.512320061E0,-3.684621774E0,-8.193829009E0,1.109619683E1
4.722753250E0,-6.201690822E0,-3.412429500E0,-7.976447073E0,1.066439647E1
4.732743250E0,-5.703599265E0,-3.097530040E0,-7.845865299E0,1.018250162E1
4.742733250E0,-5.383939002E0,-2.794357755E0,-7.644036956E0,9.758408447E0
4.752722250E0,-4.982123605E0,-2.509438432E0,-7.208084929E0,9.114566649E0
4.762712250E0,-4.605850600E0,-2.260803420E0,-6.822812474E0,8.536736022E0
4.772702250E0,-4.405233800E0,-2.037432473E0,-6.479113138E0,8.095438406E0
4.782691250E0,-4.421787853E0,-1.795260682E0,-6.075217887E0,7.725505880E0
4.792681250E0,-4.239576918E0,-1.693169173E0,-5.465446265E0,7.121231436E0
4.802671250E0,-3.634002428E0,-1.474177206E0,-4.768064057E0,6.173621865E0
4.812660250E0,-2.463528433E0,-1.119895287E0,-4.065850879E0,4.884084476E0
4.822650250E0,-1.111500147E0,-5.397611547E-1,-3.566319737E0,3.774309361E0
4.832640250E0,-5.140111864E-2,-4.215287000E-2,-3.067083880E0,3.067804177E0
4.842629250E0,2.780953306E-1,4.828659922E-1,-2.259702097E0,2.327391275E0
4.852619250E0,-1.329060423E-1,9.097413862E-1,-8.219290709E-1,1.233231853E0
4.862609250E0,-1.063357097E-1,9.054299417E-1,1.017345357E0,1.366053527E0
4.872598250E0,3.314470804E-1,1.032146414E0,2.572425808E0,2.791515346E0
4.882588250E0,1.389964437E0,1.459244002E0,3.749064522E0,4.256392720E0
4.892578250E0,3.336621226E0,2.401868375E0,5.051844050E0,6.513304937E0
4.902567250E0,5.556926538E0,3.473868826E0,5.996113830E0,8.882599745E0
4.912557250E0,7.147880242E0,4.146489830E0,6.465862763E0,1.049251882E1
4.922547000E0,7.405504471E0,4.809403579E0,6.601339826E0,1.102495110E1
4.932537000E0,6.715510805E0,5.114345523E0,7.265456640E0,1.113739088E1
4.942526000E0,5.570903138E0,5.489767758E0,8.638061863E0,1.165283762E1
4.952516000E0,4.748511552E0,5.583487515E0,1.067363024E1,1.294797580E1
4.962506000E0,4.710997863E0,5.452237405E0,1.368917384E1,1.546977292E1
4.972495000E0,5.664062732E0,4.686365590E0,1.744968429E1,1.893502339E1
4.982485000E0,7.643061640E0,3.602221349E0,2.122466776E1,2.284466922E1
4.992475000E0,1.001257679E1,2.807748464E0,2.358241480E1,2.577334734E1
5.002464000E0,1.134973677E1,2.195533876E0,2.346417475E1,2.615730090E1
5.012454000E0,1.114236878E1,1.869919100E0,2.097565122E1,2.382492232E1
5.022444000E0,1.036375354E1,2.152612389E0,1.718588131E1,2.018404429E1
5.032433000E0,1.015296960E1,2.523642196E0,1.365611719E1,1.720293866E1
5.042423000E0,1.036172222E1,3.043602339E0,1.126074917E1,1.560234836E1
5.052413000E0,1.062490773E1,3.770015388E0,9.927456529E0,1.502185320E1
5.062402000E0,1.096288382E1,4.385055059E0,9.603081071E0,1.521948407E1
5.072392000E0,1.123893087E1,4.551109844E0,9.957443390E0,1.569002380E1
5.082382000E0,1.136270941E1,4.467287961E0,1.094298223E1,1.639563012E1
5.092371000E0,1.145005044E1,4.149138034E0,1.203100873E1,1.711911716E1
5.102361000E0,1.148980098E1,3.815807273E0,1.304997143E1,1.780105800E1
5.112351000E0,1.091356723E1,3.420101924E0,1.379240059E1,1.791740385E1
5.122340000E0,1.003822618E1,2.859290501E0,1.373560775E1,1.725133176E1
5.132330000E0,9.450592704E0,2.307700721E0,1.298997900E1,1.622894758E1
5.142320000E0,8.960107205E0,1.788939549E0,1.170214144E1,1.484668112E1
5.152310000E0,8.134407849E0,1.421256689E0,9.985714678E0,1.295774129E1
5.162299000E0,7.242316868E0,1.161145347E0,8.175068802E0,1.098322184E1
5.172289000E0,6.374446224E0,1.088291379E0,6.506661125E0,9.173580642E0
5.182279000E0,5.438919786E0,1.307770711E0,5.168193702E0,7.615926655E0
5.192268000E0,4.640321398E0,1.826527498E0,4.221860440E0,6.533979718E0
5.202258000E0,4.484031756E0,2.101540761E0,3.686662452E0,6.173693740E0
5.212248000E0,4.457964284E0,2.139977433E0,3.476666134E0,6.044845438E0
5.222237000E0,4.085831984E0,2.050144905E0,3.467563189E0,5.737692184E0
5.232227000E0,3.467228728E0,1.803528644E0,3.482744315E0,5.234873311E0
5.242217000E0,2.831718540E0,1.604167242E0,3.701348319E0,4.928687636E0
5.252206000E0,2.376921814E0,1.484795750E0,3.927977042E0,4.825285419E0
5.262196000E0,2.300281189E0,1.315941026E0,4.112323964E0,4.892259470E0
5.272186000E0,2.238091080E0,1.032747508E0,4.103984665E0,4.787307096E0
5.282175000E0,1.796162030E0,6.240800509E-1,3.606738616E0,4.077283089E0
5.292165000E0,1.079662058E0,7.741976649E-2,2.647774783E0,2.860485148E0
5.302155000E0,4.416869760E-1,-5.122248620E-1,1.422384324E0,1.575004400E0
5.312144000E0,-3.164162278E-2,-1.117235681E0,1.804789889E-1,1.132161395E0
5.322134000E0,-3.921066803E-1,-1.523315745E0,-1.064154657E0,1.899121808E0
5.332124000E0,-8.265091950E-1,-1.856862560E0,-2.212117456E0,3.004083830E0
5.342114000E0,-1.318903225E0,-2.133518014E0,-3.112119720E0,3.997085686E0
5.352103000E0,-1.979383655E0,-2.304993168E0,-3.917071400E0,4.957257459E0
5.362093000E0,-2.510514320E0,-2.478114898E0,-4.454081440E0,5.681775873E0
5.372083000E0,-3.202904175E0,-2.654951364E0,-4.620293807E0,6.217272454E0
5.382072000E0,-4.226534704E0,-2.388892234E0,-4.592566895E0,6.682968831E0
5.392062000E0,-5.181009044E0,-2.171355346E0,-4.359186977E0,7.110566071E0
5.402052000E0,-5.869745559E0,-2.187152477E0,-4.165489773E0,7.522556343E0
5.412041000E0,-6.436881039E0,-2.279162508E0,-4.061543235E0,7.945070968E0
5.422031000E0,-6.719949426E0,-2.299544732E0,-4.150986339E0,8.226561484E0
5.432021000E0,-6.463646668E0,-2.374201397E0,-4.598599468E0,8.280258305E0
5.442010000E0,-6.573374348E0,-2.916794943E0,-5.324662853E0,8.948127042E0
5.452000000E0,-7.113895056E0,-2.654376582E0,-6.145733553E0,9.768482933E0
5.461990000E0,-7.206330764E0,-2.597196076E0,-7.129634006E0,1.046462190E1
5.471979000E0,-7.055497743E0,-2.770222203E0,-7.949893697E0,1.098430650E1
5.481969000E0,-7.563903204E0,-2.916309039E0,-8.866844115E0,1.201409234E1
5.491959000E0,-7.788790627E0,-2.717284729E0,-9.601661367E0,1.265862539E1
5.501948000E0,-7.823293292E0,-2.719642034E0,-1.007633833E1,1.304350279E1
5.511938000E0,-7.854251960E0,-2.904579525E0,-1.024714135E1,1.323366019E1
5.521928000E0,-7.728547933E0,-3.086291107E0,-1.004867165E1,1.304727741E1
5.531917000E0,-7.206709664E0,-3.200118269E0,-9.452607654E0,1.230972025E1
5.541907000E0,-6.495526857E0,-3.225647213E0,-8.708242484E0,1.133270295E1
5.551897000E0,-5.774854605E0,-3.117137800E0,-7.893258151E0,1.026494121E1
5.561887000E0,-5.242857383E0,-3.026338727E0,-7.029924361E0,9.277182555E0
5.571876000E0,-5.044081872E0,-2.866635188E0,-6.249433923E0,8.527355017E0
5.581866000E0,-4.852651048E0,-2.772684466E0,-5.719953343E0,7.997116204E0
5.591856000E0,-4.698902605E0,-2.815723774E0,-5.355304602E0,7.660761937E0
5.601845000E0,-4.645033377E0,-2.844513417E0,-5.099899392E0,7.461673101E0
5.611835000E0,-4.628415590E0,-2.877252855E0,-5.064737161E0,7.439917834E0
5.621825000E0,-4.638714876E0,-3.016231815E0,-5.178178992E0,7.578183670E0
5.631814000E0,-4.720750726E0,-3.103981273E0,-5.402921988E0,7.817400666E0
5.641804000E0,-4.904580755E0,-3.201680353E0,-5.804352053E0,8.245979155E0
5.651794000E0,-4.987252198E0,-3.339744224E0,-6.122567469E0,8.573937741E0
5.661783000E0,-5.034867244E0,-3.419972408E0,-6.347777073E0,8.794337565E0
5.671773000E0,-5.033880234E0,-3.491409011E0,-6.526873780E0,8.951534418E0
5.681763000E0,-5.046855791E0,-3.542375974E0,-6.669898430E0,9.083321307E0
5.691752000E0,-5.123073662E0,-3.609343550E0,-6.809778446E0,9.254530085E0
5.701742000E0,-5.079721236E0,-3.706460540E0,-6.958165576E0,9.378565229E0
5.711732000E0,-4.879197407E0,-3.752635125E0,-7.141676347E0,9.428275492E0
5.721721000E0,-4.660523236E0,-3.740216223E0,-7.328773214E0,9.456247197E0
5.731711000E0,-4.643572742E0,-3.784143431E0,-7.570153293E0,9.653482801E0
5.741701000E0,-4.692639652E0,-3.868891513E0,-7.692345482E0,9.806190262E0
5.751691000E0,-4.679256545E0,-3.961372830E0,-7.798999280E0,9.920297691E0
5.761680000E0,-4.695910000E0,-4.102138407E0,-7.776601521E0,9.967679843E0
5.771670000E0,-4.707000999E0,-4.255172612E0,-7.713030592E0,9.987652040E0
5.781660000E0,-4.662824115E0,-4.288978289E0,-7.678023897E0,9.954361580E0
5.791649000E0,-4.528100173E0,-4.318136015E0,-7.603627433E0,9.847087893E0
5.801639000E0,-4.421793700E0,-4.333294922E0,-7.576937817E0,9.784666120E0
5.811629000E0,-4.265326887E0,-4.323806645E0,-7.603850212E0,9.731744725E0
5.821618000E0,-3.983084126E0,-4.320449173E0,-7.481101953E0,9.513050333E0
5.831608000E0,-3.782897682E0,-4.447834567E0,-7.246024588E0,9.305827182E0
5.841598000E0,-3.711231283E0,-4.537236740E0,-7.157354486E0,9.251350070E0
5.851587000E0,-3.381578713E0,-4.590601939E0,-7.115892465E0,9.118367525E0
5.861577000E0,-2.583724383E0,-4.574113375E0,-6.767895425E0,8.567529010E0
5.871567000E0,-1.563983422E0,-4.370959176E0,-6.366434954E0,7.879265339E0
5.881556000E0,-3.024203324E-1,-4.057621800E0,-5.765164599E0,7.056406705E0
5.891546000E0,6.621667671E-1,-3.355514749E0,-4.944419589E0,6.012090247E0
5.901536000E0,1.218919346E0,-2.100781792E0,-3.276505417E0,4.078545851E0
5.911525000E0,2.949350778E0,-4.345358312E-2,5.954248935E-1,3.009167498E0
5.921515000E0,1.006988535E1,2.574971978E0,8.102949244E0,1.317918275E1
5.931505125E0,2.350197115E1,7.334741467E0,1.873847845E1,3.093980696E1
5.941494125E0,3.944457770E1,1.302294560E1,3.133677702E1,5.203331064E1
5.951484125E0,4.939467231E1,1.419381779E1,4.172139460E1,6.619647184E1
5.961474125E0,4.401065437E1,1.200098211E1,4.542780427E1,6.437893033E1
5.971463125E0,2.986615551E1,1.017605792E1,4.390597518E1,5.406731042E1
5.981453125E0,1.881179668E1,1.013807324E1,3.832161760E1,4.387722187E1
5.991443125E0,1.490016963E1,9.830308549E0,3.010474998E1,3.499922845E1
6.001433125E0,1.388109466E1,1.068362898E1,2.188670589E1,2.803306284E1
6.011422125E0,1.414270026E1,1.189016100E1,1.510263765E1,2.386381284E1
6.021412125E0,1.529533148E1,1.374743550E1,1.055710810E1,2.311691327E1
6.031402125E0,1.681709859E1,1.516923159E1,8.134034797E0,2.406414166E1
6.041391125E0,1.755813611E1,1.550568389E1,6.865515860E0,2.441003245E1
6.051381125E0,1.704244326E1,1.445904398E1,6.166521574E0,2.318479703E1
6.061371125E0,1.524000512E1,1.212329183E1,5.481044297E0,2.023051674E1
6.071360125E0,1.216058069E1,9.675264949E0,4.907938226E0,1.629657425E1
6.081350125E0,8.540894002E0,7.791758673E0,3.673409153E0,1.213063512E1
6.091340125E0,5.428439237E0,5.569635462E0,2.539733441E0,8.181628058E0
6.101329125E0,2.659441733E0,3.608009508E0,1.505420634E0,4.728282376E0
6.111319125E0,2.082158411E-1,1.905186874E0,6.325821948E-1,2.018229693E0
6.121309125E0,-1.689804393E0,4.513781512E-1,-3.426444983E-1,1.782298060E0
6.131298125E0,-3.039886141E0,-8.443563589E-1,-1.686218880E0,3.577314569E0
6.141288125E0,-4.151948206E0,-2.104000977E0,-3.068216486E0,5.574894297E0
6.151278125E0,-5.360843670E0,-3.259909557E0,-4.375962054E0,7.649490119E0
6.161267125E0,-6.551021027E0,-4.389619396E0,-5.393464701E0,9.553747768E0
6.171257125E0,-7.619874507E0,-5.545708655E0,-6.279209114E0,1.132456794E1
6.181247125E0,-8.640195512E0,-6.389841358E0,-7.156713631E0,1.291129742E1
6.191236125E0,-9.295189499E0,-7.243616120E0,-8.072040278E0,1.428384950E1
6.201226125E0,-9.850273283E0,-7.971260008E0,-9.168627101E0,1.564073505E1
6.211216125E0,-1.016759466E1,-8.421328967E0,-1.040802749E1,1.681147819E1
6.221205125E0,-1.033274108E1,-8.541982754E0,-1.169679592E1,1.779174085E1
6.231195125E0,-1.027282466E1,-8.290415071E0,-1.280494386E1,1.839098953E1
6.241185125E0,-9.987095790E0,-7.942049657E0,-1.353614519E1,1.860229722E1
6.251174125E0,-9.393035052E0,-7.670067590E0,-1.366524002E1,1.827013490E1
6.261164125E0,-8.618657877E0,-7.372674694E0,-1.316453125E1,1.737649213E1
6.271154125E0,-7.889210123E0,-7.011533114E0,-1.209797338E1,1.605497409E1
6.281144125E0,-7.193938175E0,-6.763638067E0,-1.068224436E1,1.454681721E1
6.291133125E0,-6.728164764E0,-6.481842034E0,-9.097436081E0,1.304016183E1
6.301123125E0,-6.232006297E0,-6.353447703E0,-7.526168198E0,1.165535962E1
6.311113125E0,-5.845097206E0,-6.287798674E0,-6.163462896E0,1.056834180E1
6.321102125E0,-5.787455939E0,-6.237913738E0,-5.158939313E0,9.950923017E0
6.331092125E0,-5.954732500E0,-6.262707102E0,-4.504724175E0,9.745402982E0
6.341082125E0,-6.379579495E0,-6.268201731E0,-4.145871779E0,9.857871995E0
6.351071125E0,-6.859763369E0,-6.259303438E0,-4.080629717E0,1.014331168E1
6.361061125E0,-7.154573550E0,-6.289515417E0,-4.161676219E0,1.039545457E1
6.371051125E0,-7.291213624E0,-6.194339703E0,-4.360535345E0,1.051408146E1
6.381040125E0,-7.293194661E0,-6.030535803E0,-4.659117565E0,1.054824284E1
6.391030125E0,-7.268382002E0,-5.928908272E0,-4.988936196E0,1.062406770E1
6.401020125E0,-7.231082028E0,-5.824863501E0,-5.336656662E0,1.070969124E1
6.411009125E0,-7.238368828E0,-5.706750330E0,-5.763847221E0,1.087119669E1
6.420999125E0,-7.155894436E0,-5.559289983E0,-6.209214435E0,1.098484748E1
6.430989125E0,-7.041021207E0,-5.409500690E0,-6.612837206E0,1.107105656E1
6.440978125E0,-7.014335684E0,-5.198529056E0,-6.815757809E0,1.107610780E1
6.450968125E0,-6.649051352E0,-5.004789752E0,-6.778933799E0,1.073367355E1
6.460958125E0,-6.013537363E0,-4.761030149E0,-6.642967908E0,1.014687451E1
6.470947125E0,-5.553470834E0,-4.413217296E0,-6.546874182E0,9.652931511E0
6.480937125E0,-5.324099182E0,-4.000467021E0,-6.454666514E0,9.274291795E0
6.490927125E0,-5.120804942E0,-3.756825824E0,-6.527654969E0,9.107505856E0
6.500917125E0,-4.949946962E0,-3.556840231E0,-6.517680788E0,8.923746423E0
6.510906125E0,-4.978878400E0,-3.381576959E0,-6.535418901E0,8.884593017E0
6.520896125E0,-5.040905079E0,-3.241619174E0,-6.441504432E0,8.798397481E0
6.530886125E0,-4.948289276E0,-3.066224047E0,-6.382556312E0,8.638537014E0
6.540875125E0,-4.590846645E0,-2.867100919E0,-6.361081828E0,8.352215432E0
6.550865125E0,-4.176258590E0,-2.541393465E0,-6.364727567E0,8.025557523E0
6.560855125E0,-3.352422742E0,-2.163342614E0,-6.344319030E0,7.494609627E0
6.570844125E0,-2.358510101E0,-2.007835914E0,-6.288696806E0,7.010112872E0
6.580834125E0,-1.367788872E0,-2.067026401E0,-6.271934009E0,6.743930660E0
6.590824125E0,-5.928310686E-1,-1.983262698E0,-6.267674312E0,6.600645490E0
6.600813125E0,-2.381880838E-1,-1.549793107E0,-6.352252532E0,6.542912537E0
6.610803125E0,1.945555758E-1,-1.097393155E0,-6.535057544E0,6.629411792E0
6.620793125E0,1.080135682E0,-9.366154817E-1,-6.636990885E0,6.789225998E0
6.630782125E0,2.361012710E0,-5.865359563E-1,-6.361679998E0,6.810974808E0
6.640772125E0,3.470562226E0,1.030361259E-1,-5.352339479E0,6.379886873E0
6.650762125E0,5.177162746E0,1.261215473E0,-3.649406333E0,6.458470806E0
6.660751125E0,9.025705363E0,3.999354588E0,-7.017056394E-1,9.896998799E0
6.670741125E0,1.637073150E1,6.812405015E0,4.053624936E0,1.818905129E1
6.680731125E0,2.608785316E1,9.976547413E0,1.071712300E1,2.991595404E1
6.690720125E0,3.368971064E1,1.380148599E1,1.812312215E1,4.066847888E1
6.700710125E0,3.587299079E1,1.572114326E1,2.540381312E1,4.668382520E1
6.710700125E0,3.376576186E1,1.618802940E1,3.242709095E1,4.953478775E1
6.720689125E0,3.100793429E1,1.686272207E1,3.823221835E1,5.203408407E1
6.730679125E0,3.026085426E1,1.712807106E1,4.000439949E1,5.300417056E1
6.740669125E0,3.173939291E1,1.711564455E1,3.668533043E1,5.144072141E1
6.750658125E0,3.224972619E1,1.707902578E1,2.924297330E1,4.676418981E1
6.760648125E0,3.146165484E1,1.743173217E1,2.002244748E1,4.116551244E1
6.770638125E0,3.018100702E1,1.750919959E1,1.274142672E1,3.714578321E1
6.780628125E0,2.808815990E1,1.695970399E1,8.249255936E0,3.383232935E1
6.790617125E0,2.487206733E1,1.509793181E1,6.926709895E0,2.990897170E1
6.800607125E0,1.973019195E1,1.174479220E1,8.533390270E0,2.449570101E1
6.810597125E0,1.366642700E1,6.960795069E0,1.092347826E1,1.882939915E1
6.820586125E0,7.151580361E0,2.189520891E0,1.233826354E1,1.442816172E1
6.830576125E0,1.044913809E0,-1.873083029E0,1.233374248E1,1.251884533E1
6.840566125E0,-3.211269786E0,-4.025154258E0,9.484984857E0,1.079254642E1
6.850555125E0,-5.372817013E0,-4.658329945E0,3.499479046E0,7.925500245E0
6.860545125E0,-6.573132858E0,-4.332567528E0,-3.518202415E0,8.622932516E0
6.870535125E0,-7.274451411E0,-3.987246759E0,-9.846777817E0,1.287535683E1
6.880524125E0,-8.012185255E0,-3.963769603E0,-1.374317522E1,1.639455541E1
6.890514125E0,-8.766082556E0,-4.615370452E0,-1.441483435E1,1.749094901E1
6.900504125E0,-9.558204861E0,-5.749544932E0,-1.205395555E1,1.642298363E1
6.910493125E0,-1.072094708E1,-7.237326270E0,-8.502010018E0,1.547907530E1
6.920483125E0,-1.213792624E1,-8.586168408E0,-5.249347792E0,1.576728238E1
6.930473417E0,-1.319952800E1,-9.332000645E0,-2.588845375E0,1.637119104E1
6.940462417E0,-1.368354180E1,-9.605334004E0,-7.182187611E-1,1.673372630E1
6.950452417E0,-1.351889591E1,-9.866073629E0,1.693131459E-1,1.673704342E1
6.960442417E0,-1.294300831E1,-1.012164256E1,3.564936286E-1,1.643460374E1
6.970431417E0,-1.234521588E1,-1.002633061E1,-3.842731655E-2,1.590387177E1
6.980421417E0,-1.234745186E1,-9.626763464E0,-9.432997262E-1,1.568515083E1
6.990411417E0,-1.261181032E1,-9.155010105E0,-1.822073381E0,1.569050417E1
7.000400417E0,-1.255809078E1,-8.718677425E0,-2.450307879E0,1.548305490E1
7.010390417E0,-1.186877773E1,-8.400237476E0,-2.721064369E0,1.479310873E1
7.020380417E0,-1.048206493E1,-8.143422502E0,-2.632059807E0,1.353206393E1
7.030369417E0,-8.896119370E0,-7.862086644E0,-2.341968913E0,1.210116377E1
7.040359417E0,-7.426775472E0,-7.567930182E0,-2.045456023E0,1.079881713E1
7.050349417E0,-6.355532236E0,-7.480441802E0,-1.765215641E0,9.973253522E0
7.060338417E0,-5.857656441E0,-7.418588786E0,-1.716590488E0,9.606991280E0
7.070328417E0,-5.994532743E0,-7.393329983E0,-1.837290175E0,9.693883960E0
7.080318417E0,-6.456259881E0,-7.343928028E0,-2.137518679E0,1.000927353E1
7.090308417E0,-6.924953976E0,-7.205489935E0,-2.496720153E0,1.030085843E1
7.100297417E0,-7.417241002E0,-7.113893886E0,-2.839200929E0,1.066227050E1
7.110287417E0,-7.846768109E0,-6.952019568E0,-3.142178794E0,1.094420547E1
7.120277417E0,-7.974450833E0,-6.798011509E0,-3.417728539E0,1.102205493E1
7.130266417E0,-7.903567377E0,-6.611566606E0,-3.600018995E0,1.091509629E1
7.140256417E0,-7.547685367E0,-6.353323742E0,-3.744239108E0,1.055232692E1
7.150246417E0,-7.149885837E0,-6.157195850E0,-3.920179780E0,1.021761899E1
7.160235417E0,-6.947692044E0,-6.006977956E0,-4.092139961E0,1.005484054E1
7.170225417E0,-6.729266379E0,-5.814377689E0,-4.191838496E0,9.831659265E0
7.180215417E0,-6.445643091E0,-5.603867401E0,-4.300508414E0,9.562636526E0
7.190204417E0,-6.114195426E0,-5.359263167E0,-4.315400980E0,9.204769037E0
7.200194417E0,-5.853420718E0,-4.962712018E0,-4.341577502E0,8.817048253E0
7.210184417E0,-5.656020471E0,-4.646410104E0,-4.370104898E0,8.525110630E0
7.220173417E0,-5.495802670E0,-4.323495865E0,-4.489585149E0,8.309803745E0
7.230163417E0,-5.309057220E0,-3.939024479E0,-4.578503172E0,8.041436048E0
7.240153417E0,-5.083831244E0,-3.635781443E0,-4.613051446E0,7.768171629E0
7.250142417E0,-4.659723337E0,-3.333059102E0,-4.598490125E0,7.346319894E0
7.260132417E0,-4.308672296E0,-3.023544343E0,-4.552286012E0,6.959151190E0
7.270122417E0,-4.157378515E0,-2.759482330E0,-4.475659420E0,6.702989340E0
7.280111417E0,-4.180248730E0,-2.632745100E0,-4.425536503E0,6.632586188E0
7.290101417E0,-4.307948411E0,-2.608408112E0,-4.400851312E0,6.688026963E0
7.300091417E0,-4.445619934E0,-2.523742183E0,-4.321478283E0,6.693876736E0
7.310080417E0,-4.596083996E0,-2.464691152E0,-4.282790766E0,6.748406280E0
7.320070417E0,-4.675528361E0,-2.428714989E0,-4.265849628E0,6.779136744E0
7.330060417E0,-4.599962454E0,-2.372612709E0,-4.200642064E0,6.665908744E0
7.340049417E0,-4.457728348E0,-2.304330971E0,-4.024047965E0,6.432281498E0
7.350039417E0,-4.223048594E0,-2.290952249E0,-3.749471489E0,6.094352966E0
7.360029417E0,-3.921825771E0,-2.257710243E0,-3.412004115E0,5.667428429E0
7.370018417E0,-3.448057462E0,-2.004479612E0,-3.126599180E0,5.067806351E0
7.380008417E0,-2.498336908E0,-1.600022443E0,-2.682297329E0,3.999559737E0
7.389998417E0,-1.358378363E0,-9.263047940E-1,-2.000049469E0,2.589098343E0
7.399988417E0,8.940392733E-3,-2.452374870E-1,-1.150213977E0,1.176100994E0
7.409977417E0,7.976479232E-1,3.121638402E-1,-2.702518755E-1,8.981784616E-1
7.419967417E0,1.115058762E0,7.416561556E-1,7.125902313E-1,1.516968930E0
7.429957417E0,1.739227399E0,1.498592547E0,2.539559194E0,3.423456217E0
7.439946417E0,4.109574603E0,2.981056720E0,5.547790849E0,7.520191878E0
7.449936417E0,9.209758755E0,4.629453763E0,9.378984777E0,1.393617071E1
7.459926417E0,1.563007872E1,6.949102977E0,1.289231178E1,2.141964277E1
7.469915417E0,2.131547502E1,9.540446282E0,1.547932932E1,2.801748074E1
7.479905417E0,2.317059073E1,1.076565138E1,1.755819575E1,3.100106066E1
7.489895417E0,2.045922280E1,1.066245972E1,1.913092251E1,2.997098665E1
7.499884417E0,1.611139930E1,1.033926423E1,2.067361213E1,2.817580186E1
7.509874417E0,1.294132432E1,9.981371366E0,2.158453348E1,2.707393091E1
7.519864417E0,1.201650764E1,9.661091298E0,2.269143947E1,2.743418608E1
7.529853417E0,1.435430866E1,9.324674669E0,2.416190896E1,2.961070042E1
7.539843417E0,1.785224404E1,9.327998226E0,2.406875112E1,3.138501153E1
7.549833417E0,2.147727216E1,1.047584817E1,2.285374882E1,3.306524534E1
7.559822417E0,2.436837180E1,1.373766363E1,2.074091124E1,3.482422067E1
7.569812417E0,2.656883576E1,1.650991160E1,1.752786741E1,3.585674763E1
7.579802417E0,2.741282287E1,1.785594415E1,1.517072380E1,3.606173124E1
7.589791417E0,2.636244308E1,1.777694827E1,1.419501179E1,3.482092266E1
7.599781417E0,2.299536605E1,1.602284556E1,1.330036207E1,3.102286367E1
7.609771417E0,1.755596094E1,1.334096279E1,1.287877899E1,2.553538723E1
7.619760417E0,1.184226763E1,1.062062640E1,1.237212828E1,2.015208589E1
7.629750417E0,7.015786378E0,7.704777832E0,1.144906226E1,1.548114616E1
7.639740417E0,2.834751783E0,4.680090066E0,1.040647798E1,1.175728900E1
7.649729417E0,-1.218648035E0,2.286287048E0,9.469232458E0,9.817259029E0
7.659719417E0,-4.418771859E0,2.152477026E-2,8.244397484E0,9.353934890E0
7.669709417E0,-6.719664667E0,-2.525819407E0,6.013384166E0,9.364531277E0
7.679698417E0,-8.320407779E0,-4.709412975E0,3.259418976E0,1.010106768E1
7.689688417E0,-9.450979789E0,-6.129408712E0,3.702000868E-1,1.127065740E1
7.699678417E0,-1.037245537E1,-7.074531015E0,-2.391294855E0,1.278104497E1
7.709667417E0,-1.080388633E1,-7.827444815E0,-4.518204346E0,1.408570277E1
7.719657417E0,-1.123799063E1,-8.405155569E0,-6.180731478E0,1.533429213E1
7.729647417E0,-1.141520103E1,-9.250342525E0,-7.513345254E0,1.650230312E1
7.739636417E0,-1.184798620E1,-9.957642195E0,-8.912085777E0,1.785930256E1
7.749626417E0,-1.260811255E1,-1.013247160E1,-1.020931805E1,1.912751050E1
7.759616417E0,-1.315546222E1,-1.005413295E1,-1.133443578E1,2.006542324E1
7.769605417E0,-1.333670251E1,-9.909699705E0,-1.183584388E1,2.039992604E1
7.779595417E0,-1.284092996E1,-9.686358286E0,-1.162669248E1,1.984678808E1
7.789585417E0,-1.170449319E1,-9.176574637E0,-1.070551511E1,1.832519404E1
7.799575417E0,-9.703961914E0,-8.391629205E0,-9.196438798E0,1.578482829E1
7.809564417E0,-7.607966652E0,-7.502250162E0,-7.636485862E0,1.313319574E1
7.819554417E0,-5.799928050E0,-6.827963871E0,-6.180621550E0,1.088394867E1
7.829544417E0,-4.566439197E0,-6.255304527E0,-5.071910525E0,9.257725317E0
7.839533417E0,-4.165145372E0,-5.904724188E0,-4.470392833E0,8.496976861E0
7.849523417E0,-4.450907571E0,-5.937645766E0,-4.258820105E0,8.555919830E0
7.859513417E0,-4.960463179E0,-6.008561382E0,-4.333125937E0,8.915435223E0
7.869502417E0,-5.397873502E0,-6.009398704E0,-4.412280865E0,9.204245409E0
7.879492417E0,-5.482099720E0,-6.301142020E0,-4.415237802E0,9.447334700E0
7.889482417E0,-5.216554853E0,-6.469858750E0,-4.349274777E0,9.380176324E0
7.899471417E0,-4.882803969E0,-6.556698673E0,-4.135602899E0,9.161620132E0
7.909461417E0,-4.558975811E0,-6.643086607E0,-3.871150877E0,8.938717426E0
7.919451417E0,-4.680789685E0,-6.635147257E0,-3.694950880E0,8.921190123E0
7.929439750E0,-5.091022149E0,-6.661049253E0,-3.530704932E0,9.096920413E0
7.939429750E0,-5.425067732E0,-6.729407297E0,-3.499506528E0,9.325386234E0
7.949419750E0,-5.657817321E0,-6.688548124E0,-3.550434022E0,9.452679757E0
7.959408750E0,-5.694491057E0,-6.610273202E0,-3.617879900E0,9.445210171E0
7.969398750E0,-5.631956840E0,-6.455485709E0,-3.801677184E0,9.372565444E0
7.979388750E0,-5.555056599E0,-6.351532740E0,-4.048175915E0,9.358864793E0
7.989377750E0,-5.514557029E0,-6.193158565E0,-4.259974930E0,9.322710906E0
7.999367750E0,-5.601013960E0,-5.958404551E0,-4.460994018E0,9.315278300E0
8.009357750E0,-5.564531427E0,-5.808719923E0,-4.691978332E0,9.312351895E0
8.019346750E0,-5.470231626E0,-5.701873752E0,-4.959133523E0,9.328869364E0
8.029336750E0,-5.631471521E0,-5.551905534E0,-5.322027513E0,9.532109075E0
8.039326750E0,-5.934896990E0,-5.507528676E0,-5.688309381E0,9.895086559E0
8.049315750E0,-6.191900829E0,-5.562835150E0,-5.931393923E0,1.022087103E1
8.059305750E0,-6.385770527E0,-5.649494979E0,-5.935434934E0,1.038865952E1
8.069295750E0,-6.498713590E0,-5.692170882E0,-5.852519662E0,1.043484902E1
8.079284750E0,-6.467687094E0,-5.653562302E0,-5.823011688E0,1.037791926E1
8.089274750E0,-6.324585847E0,-5.654162226E0,-5.945639495E0,1.035956397E1
8.099264750E0,-6.184198877E0,-5.603914763E0,-6.162140256E0,1.037401316E1
8.109253750E0,-6.082619877E0,-5.522478837E0,-6.305998133E0,1.035672002E1
8.119243750E0,-5.832880619E0,-5.443675911E0,-6.334984535E0,1.018764609E1
8.129233750E0,-5.634486346E0,-5.409138747E0,-6.326393806E0,1.005134205E1
8.139222750E0,-5.558153284E0,-5.407329619E0,-6.211032919E0,9.935250951E0
8.149212750E0,-5.493804091E0,-5.359659024E0,-6.300922165E0,9.930229019E0
8.159202750E0,-5.510718332E0,-5.339441691E0,-6.657177812E0,1.015852699E1
8.169192750E0,-5.531760707E0,-5.454239491E0,-6.855370941E0,1.036075363E1
8.179181750E0,-5.622880792E0,-5.411510378E0,-6.837643937E0,1.037567384E1
8.189171750E0,-5.869149143E0,-5.220046225E0,-6.687786232E0,1.031611744E1
8.199161750E0,-5.982719028E0,-4.799939568E0,-6.264392855E0,9.903280500E0
8.209150750E0,-5.224491863E0,-4.286149406E0,-5.398785083E0,8.649466592E0
8.219140750E0,-4.711316829E0,-3.175307071E0,-4.242733245E0,7.090829757E0
8.229130750E0,-4.400857159E0,-8.552950376E-1,-2.595144580E0,5.180139837E0
8.239119750E0,-2.703756611E0,3.829089516E0,1.127451936E0,4.821138268E0
8.249109750E0,4.810491453E0,1.045057183E1,9.954097613E0,1.521313048E1
8.259099750E0,1.910827391E1,1.800264378E1,2.354046220E1,3.526151833E1
8.269088750E0,3.397272757E1,2.594515303E1,3.936196824E1,5.810905031E1
8.279078750E0,4.373613929E1,2.830619322E1,5.175137153E1,7.343224707E1
8.289068750E0,4.423153411E1,2.592222960E1,5.770850080E1,7.719236790E1
8.299057750E0,3.605976022E1,2.292044450E1,5.762306129E1,7.173611556E1
8.309047750E0,2.561667984E1,2.028921851E1,5.096635710E1,6.054284623E1
8.319037750E0,1.803902165E1,1.746288730E1,4.115567883E1,4.820942475E1
8.329026750E0,1.336792197E1,1.687748980E1,3.236161383E1,3.886933302E1
8.339016750E0,1.149928516E1,1.484442929E1,2.521918612E1,3.144197813E1
8.349006750E0,9.708702836E0,1.197544615E1,2.132364475E1,2.631288747E1
8.358995750E0,7.039896787E0,1.059288136E1,1.701107412E1,2.124019597E1
8.368985750E0,4.920565873E0,8.774339994E0,1.227484581E1,1.587050253E1
8.378975750E0,3.567259970E0,7.339240315E0,7.879215478E0,1.134336055E1
8.388964750E0,2.479488993E0,5.653890331E0,4.916119065E0,7.891930575E0
8.398954750E0,1.203107305E0,4.084081913E0,2.639755912E0,5.009541250E0
8.408944750E0,-5.046720135E-1,2.238670247E0,7.401335406E-1,2.411251952E0
8.418933750E0,-2.002529858E0,2.305662382E-1,-6.953497159E-1,2.132322173E0
8.428923750E0,-3.228654728E0,-1.740396842E0,-1.402653480E0,3.926910911E0
8.438913750E0,-4.185013041E0,-3.704139195E0,-1.668529299E0,5.832578448E0
8.448902750E0,-5.043452126E0,-5.715025309E0,-2.132148596E0,7.914795087E0
8.458892750E0,-5.942336987E0,-7.778228801E0,-2.716406477E0,1.015830086E1
8.468882750E0,-7.195349109E0,-9.120932533E0,-3.593237979E0,1.216042015E1
8.478871750E0,-8.465584204E0,-9.916774836E0,-4.696416369E0,1.385874690E1
8.488861750E0,-9.471619291E0,-1.048676726E1,-6.304885992E0,1.547370179E1
8.498851750E0,-9.597124513E0,-1.081929959E1,-7.952147799E0,1.650450536E1
8.508840750E0,-9.421530288E0,-1.067856179E1,-9.587963095E0,1.716758431E1
8.518830750E0,-8.909837523E0,-1.020061038E1,-1.090004613E1,1.738530018E1
8.528820750E0,-8.125273914E0,-9.857135575E0,-1.183077317E1,1.741121454E1
8.538809750E0,-7.204420479E0,-9.254966503E0,-1.190521057E1,1.671203512E1
8.548799750E0,-6.303287364E0,-8.330332843E0,-1.142086815E1,1.547779397E1
8.558789750E0,-5.157690348E0,-7.579324066E0,-1.028280703E1,1.377621295E1
8.568778750E0,-3.919090444E0,-7.148776036E0,-8.795476509E0,1.199269260E1
8.578768750E0,-2.927071717E0,-6.738975681E0,-7.421130570E0,1.044292684E1
8.588758750E0,-2.312500700E0,-6.297057155E0,-6.310816823E0,9.210157289E0
8.598747750E0,-2.267035090E0,-5.955806633E0,-5.639520798E0,8.509716540E0
8.608737750E0,-2.651022327E0,-5.777462463E0,-5.177630523E0,8.198466303E0
8.618727750E0,-3.361164329E0,-5.604318806E0,-4.922892480E0,8.181728747E0
8.628717750E0,-4.178298098E0,-5.605906325E0,-4.667707125E0,8.406655133E0
8.638706750E0,-4.833233029E0,-5.583920209E0,-4.616137022E0,8.709134712E0
8.648696750E0,-5.355394065E0,-5.613770245E0,-4.521005162E0,8.979651977E0
8.658686750E0,-5.571406583E0,-5.585251620E0,-4.359944192E0,9.013585321E0
8.668675750E0,-5.657499232E0,-5.461071378E0,-4.348814601E0,8.985699004E0
8.678665750E0,-5.778689209E0,-5.456166734E0,-4.417931614E0,9.092916152E0
8.688655750E0,-6.014982795E0,-5.405343904E0,-4.503947664E0,9.256527713E0
8.698644750E0,-6.291901081E0,-5.318598706E0,-4.578456395E0,9.425379269E0
8.708634750E0,-6.566600348E0,-5.316229414E0,-4.641388807E0,9.639762724E0
8.718624750E0,-6.665268604E0,-5.206021094E0,-4.697403379E0,9.674402292E0
8.728613750E0,-6.643632152E0,-4.989565356E0,-4.887647803E0,9.639642714E0
8.738603750E0,-6.452596015E0,-4.810023091E0,-5.335267949E0,9.655951613E0
8.748593750E0,-6.100504171E0,-4.692848106E0,-5.774634749E0,9.622129752E0
8.758582750E0,-5.834648232E0,-4.466742708E0,-6.208668305E0,9.619899819E0
8.768572750E0,-5.709910750E0,-4.301351582E0,-6.579808039E0,9.715893167E0
8.778562750E0,-5.773557107E0,-4.187036470E0,-6.881441921E0,9.910574100E0
8.788551750E0,-5.914563298E0,-4.118541309E0,-6.999938085E0,1.004706797E1
8.798541750E0,-6.191599697E0,-4.041196094E0,-6.998984989E0,1.018100995E1
8.808531750E0,-6.395508479E0,-3.956239267E0,-6.888307137E0,1.019819264E1
8.818520750E0,-6.324994567E0,-3.924957248E0,-6.843208732E0,1.011139711E1
8.828510750E0,-6.318473167E0,-3.815667232E0,-6.831793213E0,1.005762487E1
8.838500750E0,-6.310635560E0,-3.644459004E0,-6.767482612E0,9.945100477E0
8.848489750E0,-6.260510303E0,-3.557490734E0,-6.660731750E0,9.808928434E0
8.858479750E0,-6.319468948E0,-3.567130454E0,-6.536138109E0,9.766330367E0
8.868469750E0,-6.425126966E0,-3.496684954E0,-6.335318996E0,9.677051667E0
8.878458750E0,-6.271636385E0,-3.484195886E0,-6.237351821E0,9.506713505E0
8.888448750E0,-6.217965378E0,-3.509823355E0,-6.300590043E0,9.522572568E0
8.898438750E0,-6.493465129E0,-3.463773901E0,-6.308072140E0,9.693017752E0
8.908427750E0,-6.790235882E0,-3.424309580E0,-6.413953521E0,9.948467179E0
8.918417750E0,-6.880071918E0,-3.356828326E0,-6.499030509E0,1.004196612E1
8.928408250E0,-6.738031940E0,-3.214266484E0,-6.372349412E0,9.815264668E0
8.938397250E0,-6.323826293E0,-3.006982689E0,-6.093130832E0,9.282185476E0
8.948387250E0,-5.143741230E0,-2.422227210E0,-5.028821808E0,7.590408901E0
8.958377250E0,-3.323943293E0,-1.328636793E0,-3.249577235E0,4.834627902E0
8.968366250E0,-8.065000230E-1,4.612619922E-1,-5.279813540E-1,1.068629600E0
8.978356250E0,2.441562783E0,3.712756822E0,3.117618442E0,5.428198300E0
8.988346250E0,7.607676630E0,8.936249396E0,7.935704259E0,1.416716976E1
8.998335250E0,1.570544466E1,1.491945257E1,1.459518821E1,2.612030964E1
9.008325250E0,2.669587471E1,2.142184289E1,2.456831150E1,4.213273085E1
9.018315250E0,3.801725599E1,2.535551746E1,3.476937094E1,5.742058145E1
9.028304250E0,4.360063826E1,2.410540380E1,3.987500762E1,6.381302674E1
9.038294250E0,4.054102419E1,2.201119779E1,4.008234521E1,6.111187993E1
9.048284250E0,3.219076287E1,2.093208011E1,3.609995632E1,5.270297940E1
9.058273250E0,2.443776422E1,1.978646321E1,3.039677396E1,4.373410927E1
9.068263250E0,1.960462416E1,1.861756387E1,2.548837322E1,3.715658949E1
9.078253250E0,1.611365632E1,1.701059815E1,2.203690683E1,3.216575247E1
9.088242250E0,1.238577100E1,1.551851736E1,1.932104824E1,2.770441498E1
9.098232250E0,8.838673984E0,1.384980738E1,1.711159126E1,2.372226544E1
9.108222250E0,6.886683950E0,1.179745106E1,1.496039595E1,2.025881818E1
9.118211250E0,6.910120760E0,8.899403166E0,1.265350331E1,1.694285370E1
9.128201250E0,6.598333772E0,6.300193602E0,9.377283238E0,1.308296178E1
9.138191250E0,5.504726690E0,3.667682683E0,5.605922697E0,8.670656346E0
9.148180250E0,4.633399172E0,5.805001679E-1,2.117222993E0,5.127182612E0
9.158170250E0,3.855728846E0,-2.520183568E0,-1.056255069E0,4.725848592E0
9.168160250E0,2.158413704E0,-4.768400856E0,-4.002674053E0,6.589218164E0
9.178149250E0,-6.475697780E-1,-6.147068473E0,-6.751362423E0,9.153507087E0
9.188139250E0,-3.855627104E0,-7.298310390E0,-8.925482333E0,1.215711437E1
9.198129250E0,-6.930849724E0,-8.181241708E0,-1.046994833E1,1.498630081E1
9.208118250E0,-9.569933791E0,-8.746334170E0,-1.124290814E1,1.716056461E1
9.218108250E0,-1.108626240E1,-9.064890479E0,-1.151425052E1,1.837540254E1
9.228098250E0,-1.145958023E1,-9.214400275E0,-1.159344755E1,1.872525507E1
9.238088250E0,-1.072154935E1,-9.066837602E0,-1.146258687E1,1.812594996E1
9.248077250E0,-9.476272506E0,-8.769931778E0,-1.137131066E1,1.720517800E1
9.258067250E0,-8.383644247E0,-8.351144253E0,-1.115955024E1,1.626538234E1
9.268057250E0,-6.992771738E0,-7.899269673E0,-1.068586730E1,1.501616056E1
9.278046250E0,-4.995527177E0,-7.361974289E0,-9.635472307E0,1.311473537E1
9.288036250E0,-3.342015283E0,-6.630761846E0,-8.414161450E0,1.122204000E1
9.298026250E0,-2.230173658E0,-6.027611026E0,-7.228786411E0,9.672699841E0
9.308015250E0,-1.743423945E0,-5.694470592E0,-6.400838801E0,8.742840485E0
9.318005250E0,-1.875600840E0,-5.542618402E0,-5.703253695E0,8.171021966E0
9.327995250E0,-2.299392412E0,-5.451492469E0,-5.339570915E0,7.969754900E0
9.337984250E0,-2.942783770E0,-5.592079414E0,-5.129658211E0,8.139086058E0
9.347974250E0,-3.671202414E0,-5.751746408E0,-5.062273729E0,8.496289144E0
9.357964250E0,-4.221975045E0,-5.947114162E0,-4.984652526E0,8.834025184E0
9.367953250E0,-4.562804568E0,-6.154989696E0,-4.870709589E0,9.078925904E0
9.377943250E0,-4.879443575E0,-6.305778862E0,-4.889190298E0,9.352860441E0
9.387933250E0,-5.099815192E0,-6.447626467E0,-4.940442898E0,9.591036340E0
9.397922250E0,-5.335405943E0,-6.523751367E0,-4.969564955E0,9.783785787E0
9.407912250E0,-5.508310449E0,-6.554496612E0,-5.101852947E0,9.966534670E0
9.417902250E0,-5.638261893E0,-6.618794349E0,-5.211409888E0,1.013692403E1
9.427891250E0,-5.874016950E0,-6.660902488E0,-5.271392380E0,1.032759772E1
9.437881250E0,-5.907484658E0,-6.606280138E0,-5.349659700E0,1.035181970E1
9.447871250E0,-5.814972936E0,-6.709668267E0,-5.590017686E0,1.049199010E1
9.457860250E0,-5.778224940E0,-6.741439698E0,-6.011447568E0,1.072251811E1
9.467850250E0,-5.689155473E0,-6.535602504E0,-6.560133328E0,1.086811572E1
9.477840250E0,-5.565535979E0,-6.419669175E0,-7.209948437E0,1.114319072E1
9.487829250E0,-5.397765913E0,-6.232875777E0,-7.778798904E0,1.133553394E1
9.497819250E0,-5.208210876E0,-6.018677065E0,-8.169186503E0,1.140550491E1
9.507809250E0,-5.185369313E0,-5.722570556E0,-8.483759689E0,1.147214222E1
9.517798250E0,-5.297304901E0,-5.535419310E0,-8.742759182E0,1.162489330E1
9.527788250E0,-5.678496584E0,-5.394475100E0,-8.984432791E0,1.191913242E1
9.537778250E0,-5.786908055E0,-5.117327603E0,-9.018795708E0,1.187493253E1
9.547767250E0,-5.775843369E0,-4.909124626E0,-9.013708631E0,1.177738572E1
9.557757250E0,-5.802875047E0,-4.569027759E0,-8.959035410E0,1.161092972E1
9.567747250E0,-5.745630221E0,-4.284620944E0,-8.754727263E0,1.131439317E1
9.577736250E0,-5.480533835E0,-3.830770883E0,-8.385000801E0,1.072470490E1
9.587726250E0,-5.179325046E0,-3.313424152E0,-8.041755209E0,1.012294495E1
9.597716250E0,-4.656326689E0,-2.932171074E0,-7.597614157E0,9.380977897E0
9.607705250E0,-4.060402443E0,-2.466569863E0,-7.034862919E0,8.488823899E0
9.617695250E0,-3.731583102E0,-1.931996065E0,-6.518328075E0,7.755380206E0
9.627685250E0,-3.336176838E0,-1.409642364E0,-6.090100220E0,7.085653687E0
9.637674250E0,-2.638046186E0,-6.810398251E-1,-5.396438595E0,6.045217319E0
9.647664250E0,-1.123288134E0,2.925493553E-1,-4.182167201E0,4.340263109E0
9.657654250E0,1.569914253E0,1.462778059E0,-2.295578274E0,3.142296934E0
9.667643250E0,4.854183018E0,3.259399973E0,4.893452919E-1,5.867387815E0
9.677633250E0,7.972794317E0,5.429126869E0,4.408602966E0,1.060550083E1
9.687623250E0,1.221034868E1,8.346282878E0,9.787423900E0,1.773546502E1
9.697612250E0,1.904013630E1,1.134182198E1,1.614800521E1,2.742119232E1
9.707602250E0,2.580586299E1,1.582701880E1,2.279922003E1,3.789777728E1
9.717592250E0,3.293978886E1,1.952003015E1,3.051257222E1,4.895996661E1
9.727581250E0,3.756805651E1,1.949146183E1,3.719812189E1,5.634692739E1
9.737571250E0,3.772828659E1,1.604380315E1,4.130014715E1,5.819389473E1
9.747561250E0,3.138068961E1,1.272541822E1,4.220776600E1,5.411265527E1
9.757550250E0,2.287058880E1,9.878486098E0,3.780064472E1,4.527181309E1
9.767540250E0,1.624017136E1,6.496603914E0,3.057787626E1,3.522719893E1
9.777530250E0,1.148793104E1,4.554976608E0,2.324430073E1,2.632523291E1
9.787519250E0,9.007004798E0,3.069317809E0,1.636783011E1,1.893284738E1
9.797509250E0,7.606959761E0,1.511851986E0,1.005377744E1,1.269763655E1
9.807499250E0,6.622305602E0,7.772627753E-1,4.407656887E0,7.992903612E0
9.817488250E0,5.566553394E0,7.603871262E-1,-4.020510399E-1,5.632614873E0
9.827478250E0,4.291437044E0,7.380425763E-1,-4.343277873E0,6.150219624E0
9.837468250E0,2.821273366E0,4.429990911E-1,-7.029068329E0,7.587070131E0
9.847458250E0,1.017112638E0,-3.843111724E-1,-8.246063356E0,8.317437951E0
9.857447250E0,-5.141246223E-1,-1.641372198E0,-8.375317227E0,8.550109092E0
9.867437250E0,-1.891726291E0,-3.055030722E0,-8.339528759E0,9.080725797E0
9.877427250E0,-3.548655884E0,-4.086184571E0,-8.411350694E0,1.000203396E1
9.887416250E0,-5.442914019E0,-4.812580956E0,-8.427532278E0,1.112697393E1
9.897406250E0,-7.277299590E0,-5.654841088E0,-8.526260176E0,1.255521524E1
9.907396250E0,-9.082399381E0,-6.212574245E0,-8.403766270E0,1.384591437E1
9.917385250E0,-1.031341954E1,-6.602229772E0,-8.308624470E0,1.479828710E1
9.927375250E0,-1.077137113E1,-7.083104203E0,-8.412083350E0,1.539337349E1
9.937365542E0,-1.053610490E1,-7.373313210E0,-8.515823480E0,1.542382909E1
9.947354542E0,-9.947972070E0,-7.460311593E0,-8.750457627E0,1.520489744E1
9.957344542E0,-9.239880686E0,-7.448751647E0,-9.047699665E0,1.492381203E1
9.967334542E0,-8.532956407E0,-7.269098870E0,-9.065476370E0,1.441644912E1
9.977323542E0,-8.019196066E0,-6.978987511E0,-9.012986500E0,1.393727728E1
9.987313542E0,-7.791459880E0,-6.463963003E0,-8.637727402E0,1.330789237E1
9.997303542E0,-7.562484670E0,-5.970562667E0,-8.099116395E0,1.258707588E1
1.000729254E1,-7.222291909E0,-5.604444521E0,-7.435274400E0,1.178365835E1
1.001728254E1,-6.674176252E0,-5.232945183E0,-6.693510071E0,1.080423163E1
1.002727254E1,-6.215484989E0,-4.843822337E0,-6.039138812E0,9.928044423E0
1.003726154E1,-5.870820862E0,-4.629295011E0,-5.489446161E0,9.275285928E0
1.004725154E1,-5.509270561E0,-4.528173556E0,-5.122090160E0,8.780217849E0
1.005724154E1,-5.302424138E0,-4.340636393E0,-4.936024157E0,8.445185641E0
1.006723054E1,-5.140627003E0,-4.191585311E0,-4.872599993E0,8.230289430E0
1.007722054E1,-5.294967769E0,-4.179321946E0,-4.830638035E0,8.296895770E0
1.008721054E1,-5.645386725E0,-4.086712283E0,-4.570267954E0,8.334204085E0
1.009719954E1,-5.957728613E0,-4.114420483E0,-4.271890386E0,8.406666022E0
1.010718954E1,-6.270459926E0,-4.017896402E0,-3.978097036E0,8.443187502E0
1.011717954E1,-6.380032654E0,-3.946708598E0,-3.682681668E0,8.357240554E0
1.012716854E1,-6.276690719E0,-3.990772045E0,-3.437013241E0,8.193666329E0
1.013715854E1,-6.114164436E0,-3.903062641E0,-3.204711549E0,7.930137505E0
1.014714854E1,-6.050113451E0,-3.727579513E0,-2.988765104E0,7.709178857E0
1.015713754E1,-5.955697875E0,-3.690582133E0,-2.925221658E0,7.592605311E0
1.016712754E1,-5.854413575E0,-3.619352814E0,-2.919672065E0,7.476520452E0
1.017711754E1,-5.597389855E0,-3.442040969E0,-2.902896404E0,7.183677802E0
1.018710654E1,-5.392112240E0,-3.203766055E0,-3.014649559E0,6.958958493E0
1.019709654E1,-5.185827150E0,-2.916830903E0,-3.157400558E0,6.735717039E0
1.020708654E1,-4.855179384E0,-2.656684186E0,-3.237525539E0,6.411888125E0
1.021707554E1,-4.744343072E0,-2.395909477E0,-3.362548950E0,6.289348841E0
1.022706554E1,-4.892261256E0,-2.287973677E0,-3.389171323E0,6.376168599E0
1.023705554E1,-5.300820832E0,-2.264531897E0,-3.236858956E0,6.610904787E0
1.024704454E1,-5.619574192E0,-2.331027311E0,-3.046461335E0,6.803986264E0
1.025703454E1,-5.435218499E0,-2.388474158E0,-2.919843389E0,6.616033128E0
1.026702454E1,-4.838569783E0,-2.265853953E0,-2.717978209E0,5.994435522E0
1.027701354E1,-4.068482126E0,-2.070493215E0,-2.478200852E0,5.194320786E0
1.028700354E1,-3.203825111E0,-1.759556121E0,-2.180961737E0,4.256421876E0
1.029699354E1,-2.595047516E0,-1.499534826E0,-1.889170473E0,3.542857799E0
1.030698254E1,-2.395699562E0,-1.306016546E0,-1.637439069E0,3.182178863E0
1.031697254E1,-2.235085904E0,-1.045043325E0,-1.611113150E0,2.946762653E0
1.032696254E1,-1.572828505E0,-6.134758329E-1,-1.391519796E0,2.187800139E0
1.033695154E1,-5.124973422E-1,7.259955579E-1,-4.396679324E-1,9.914791812E-1
1.034694154E1,3.016886703E0,2.619946422E0,2.915305949E0,4.946183722E0
1.035693154E1,1.023353488E1,3.355384064E0,8.825543477E0,1.392386642E1
1.036692054E1,1.852466682E1,4.191671558E0,1.502951004E1,2.422023045E1
1.037691054E1,2.269472093E1,4.981610219E0,1.914936697E1,3.010921875E1
1.038690054E1,2.229871942E1,3.724256248E0,2.020957475E1,3.032375115E1
1.039688954E1,1.818470385E1,1.579453985E0,1.874558047E1,2.616438259E1
1.040687954E1,1.248340664E1,1.408652723E-2,1.662722078E1,2.079182798E1
1.041686954E1,7.771295757E0,-9.148574075E-1,1.399872544E1,1.603727894E1
1.042685854E1,5.062939142E0,-2.063193551E0,1.085847242E1,1.215716019E1
1.043684854E1,3.870939792E0,-3.095665947E0,7.929444230E0,9.351118025E0
1.044683854E1,3.445962405E0,-3.489624733E0,5.220792330E0,7.163016838E0
1.045682754E1,3.320455429E0,-3.509895276E0,2.870022773E0,5.619770442E0
1.046681754E1,3.393859035E0,-3.363887085E0,9.674434644E-1,4.875444834E0
1.047680754E1,3.516434217E0,-3.039063731E0,-4.714633369E-1,4.671562441E0
1.048679654E1,3.579660745E0,-2.707916612E0,-1.272270511E0,4.665346255E0
1.049678654E1,3.710306253E0,-2.347060376E0,-1.538349813E0,4.652051703E0
1.050677654E1,4.161382688E0,-1.883268294E0,-1.176496627E0,4.716773225E0
1.051676554E1,4.952775845E0,-1.252864187E0,-2.960667479E-1,5.117354078E0
1.052675554E1,6.051317977E0,-4.205504608E-1,9.174012387E-1,6.134895026E0
1.053674554E1,7.118133702E0,4.675205594E-1,2.376161091E0,7.518812699E0
1.054673454E1,8.244094598E0,1.472429766E0,4.250483730E0,9.391472573E0
1.055672454E1,9.130293925E0,2.592073330E0,6.019865220E0,1.123921210E1
1.056671454E1,9.669853935E0,3.548320546E0,7.535957022E0,1.276273098E1
1.057670454E1,1.033266623E1,4.372444369E0,8.984471968E0,1.437369117E1
1.058669354E1,1.120410602E1,4.867374629E0,1.051574723E1,1.611844494E1
1.059668354E1,1.197710676E1,5.065679147E0,1.203303538E1,1.771739631E1
1.060667254E1,1.252315952E1,5.083182203E0,1.344297332E1,1.906257583E1
1.061666254E1,1.283477167E1,5.049919147E0,1.417987101E1,1.978134953E1
1.062665254E1,1.271206434E1,5.061680821E0,1.395856676E1,1.954632392E1
1.063664154E1,1.211910639E1,5.012239105E0,1.327282870E1,1.865913348E1
1.064663154E1,1.130918633E1,5.103953851E0,1.227427980E1,1.745296494E1
1.065662154E1,1.069912527E1,5.133931357E0,1.137023477E1,1.643504705E1
1.066661054E1,1.019545781E1,5.063357803E0,1.070070168E1,1.562337891E1
1.067660054E1,9.830913152E0,4.775437396E0,1.047961144E1,1.514179354E1
1.068659054E1,9.316615452E0,4.507812382E0,1.035486227E1,1.464045315E1
1.069658054E1,8.700018960E0,4.286285354E0,9.898358445E0,1.385785236E1
1.070656954E1,8.128278798E0,3.816056072E0,9.150629956E0,1.282050033E1
1.071655954E1,7.211388021E0,3.611202672E0,8.037388508E0,1.138615457E1
1.072654954E1,6.146520004E0,3.274534613E0,6.836452274E0,9.759065774E0
1.073653854E1,4.751083158E0,2.587413391E0,5.367532300E0,7.620885921E0
1.074652854E1,2.990471322E0,1.957617980E0,3.517619448E0,5.014861260E0
1.075651854E1,1.207949969E0,1.217269261E0,1.697296430E0,2.412820498E0
1.076650754E1,-4.047951382E-1,2.800819221E-1,-2.756435931E-1,5.641669766E-1
1.077649754E1,-2.115216229E0,-5.285704610E-1,-2.372252812E0,3.221972972E0
1.078648754E1,-4.006060175E0,-1.015618382E0,-4.342774428E0,5.994971939E0
1.079647654E1,-5.819924943E0,-1.385736023E0,-6.304011249E0,8.690934846E0
1.080646654E1,-7.572121466E0,-2.020101034E0,-7.457532411E0,1.081816164E1
1.081645654E1,-9.113846877E0,-2.232059678E0,-7.789577662E0,1.219515541E1
1.082644554E1,-9.844451795E0,-2.562933731E0,-7.624832361E0,1.271298269E1
1.083643554E1,-1.000187404E1,-3.129845847E0,-7.501937921E0,1.288846352E1
1.084642554E1,-9.944159685E0,-3.857518678E0,-7.264129322E0,1.290481836E1
1.085641454E1,-9.737653570E0,-4.390040395E0,-7.494998446E0,1.304872995E1
1.086640454E1,-9.616055458E0,-4.896463358E0,-8.248214546E0,1.358222806E1
1.087639454E1,-9.556478178E0,-5.247804712E0,-9.420339795E0,1.440862698E1
1.088638354E1,-9.613235931E0,-5.451473758E0,-1.076250909E1,1.542609715E1
1.089637354E1,-9.765524324E0,-5.583758826E0,-1.186164530E1,1.634755202E1
1.090636354E1,-9.809818152E0,-5.832252043E0,-1.255916901E1,1.696998593E1
1.091635254E1,-9.531291881E0,-5.981430302E0,-1.279732377E1,1.704096620E1
1.092634254E1,-8.950639393E0,-5.962913339E0,-1.254124379E1,1.652129162E1
1.093633554E1,-8.142546589E0,-5.848920701E0,-1.169426758E1,1.540346820E1
1.094632454E1,-7.185989470E0,-5.680613276E0,-1.046882216E1,1.391057329E1
1.095631454E1,-6.309788883E0,-5.560235478E0,-9.175846658E0,1.244691995E1
1.096630454E1,-5.344122387E0,-5.476154855E0,-7.821681799E0,1.094196611E1
1.097629354E1,-4.435153418E0,-5.306397321E0,-6.562573956E0,9.533929688E0
1.098628354E1,-3.656039414E0,-4.914387120E0,-5.467609150E0,8.210516109E0
1.099627354E1,-3.136674517E0,-4.872035737E0,-4.719164962E0,7.473016605E0
1.100626254E1,-2.952646269E0,-4.941063287E0,-4.165590929E0,7.105235688E0
1.101625254E1,-3.226824549E0,-5.049968848E0,-3.621404017E0,7.002081769E0
1.102624254E1,-3.560866624E0,-4.931361587E0,-3.401849840E0,6.969266859E0
1.103623154E1,-3.895961198E0,-4.993056729E0,-3.507640005E0,7.239659353E0
1.104622154E1,-4.347026523E0,-5.115978066E0,-3.636331959E0,7.634970941E0
1.105621154E1,-4.826490020E0,-5.076863701E0,-3.755784727E0,7.948299810E0
1.106620054E1,-5.106975693E0,-5.035141479E0,-3.982038059E0,8.203077321E0
1.107619054E1,-5.291825475E0,-4.977200249E0,-4.393983173E0,8.490172395E0
1.108618054E1,-5.325711259E0,-4.896308114E0,-4.896993992E0,8.735993574E0
1.109616954E1,-5.306789669E0,-4.674624673E0,-5.514581587E0,8.967984306E0
1.110615954E1,-5.210036961E0,-4.499612831E0,-6.130566460E0,9.218180184E0
1.111614954E1,-5.212911453E0,-4.330296177E0,-6.664248265E0,9.504636539E0
1.112613854E1,-5.257177799E0,-4.095418787E0,-7.062489259E0,9.710258904E0
1.113612854E1,-5.315195042E0,-3.852984163E0,-7.452513746E0,9.931603417E0
1.114611854E1,-5.410285971E0,-3.767757486E0,-7.744928908E0,1.017109210E1
1.115610754E1,-5.575971504E0,-3.608629313E0,-7.995952215E0,1.039465803E1
1.116609754E1,-5.640663929E0,-3.425777524E0,-8.155062554E0,1.049085728E1
1.117608754E1,-5.513295785E0,-3.290158081E0,-8.146669461E0,1.037255002E1
1.118607654E1,-5.380604920E0,-3.077268268E0,-8.012272378E0,1.013000484E1
1.119606654E1,-5.174673001E0,-2.795177827E0,-7.745058131E0,9.725028803E0
1.120605654E1,-4.813389333E0,-2.508795238E0,-7.453980812E0,9.220878503E0
1.121604554E1,-4.441318722E0,-2.222796519E0,-7.172853701E0,8.724446490E0
1.122603554E1,-4.116660259E0,-1.865470539E0,-6.875143885E0,8.227665250E0
1.123602554E1,-3.673926632E0,-1.504055601E0,-6.470392601E0,7.591172542E0
1.124601454E1,-3.119844477E0,-1.152592917E0,-6.101495274E0,6.949111063E0
1.125600454E1,-2.756415465E0,-6.834558946E-1,-5.730506397E0,6.395595496E0
1.126599454E1,-2.253612222E0,-2.217945376E-1,-5.299190043E0,5.762757671E0
1.127598354E1,-1.603993580E0,1.219278949E-1,-4.684285151E0,4.952796098E0
1.128597354E1,-8.635676783E-1,5.566560996E-1,-3.996887648E0,4.126830021E0
1.129596354E1,1.529263240E-1,1.146374988E0,-2.914882026E0,3.135936750E0
1.130595254E1,1.197042573E0,1.717350918E0,-1.829805447E0,2.780358443E0
1.131594254E1,2.050411538E0,2.395434099E0,-8.374657077E-1,3.262459319E0
1.132593254E1,2.742767479E0,2.858892598E0,-9.859107256E-2,3.963049398E0
1.133592154E1,3.280022517E0,3.133462057E0,4.367261982E-1,4.557176972E0
1.134591154E1,3.823269782E0,3.511145411E0,8.464932239E-1,5.259475706E0
1.135590154E1,4.636099416E0,3.675381419E0,1.075209403E0,6.013145735E0
1.136589054E1,5.678514710E0,3.820705193E0,1.459908831E0,6.998189143E0
1.137588054E1,6.702406025E0,4.111161538E0,2.461417004E0,8.239081829E0
1.138587054E1,7.307095832E0,4.046030572E0,3.876346128E0,9.208152485E0
1.139585954E1,7.399431553E0,3.402383106E0,5.523484558E0,9.840562980E0
1.140584954E1,6.861457307E0,2.904281609E0,7.245753277E0,1.039304520E1
1.141583954E1,6.485523441E0,2.183566087E0,8.955477964E0,1.127078350E1
1.142582854E1,6.084327849E0,1.102486664E0,9.596418754E0,1.141603150E1
1.143581854E1,5.245201532E0,4.459110045E-1,9.591635147E0,1.094122665E1
1.144580854E1,4.641037097E0,-1.600377077E-1,9.637373237E0,1.069784092E1
1.145579754E1,3.997548968E0,-7.696280658E-1,9.167109164E0,1.003038462E1
1.146578754E1,3.259303493E0,-1.071411636E0,8.398735326E0,9.072471396E0
1.147577754E1,2.946322505E0,-1.526003417E0,7.321136751E0,8.037944143E0
1.148576654E1,2.255580980E0,-1.716824961E0,5.762104751E0,6.421602967E0
1.149575654E1,1.218856196E0,-1.537473316E0,4.198610156E0,4.634410628E0
1.150574654E1,5.725421074E-1,-1.139582570E0,3.006595019E0,3.265894442E0
1.151573554E1,4.319966778E-1,-4.803008187E-1,2.198999813E0,2.291922813E0
1.152572554E1,6.292425576E-1,1.496366805E-1,1.943529698E0,2.048327371E0
1.153571554E1,1.169655969E0,7.987536317E-1,2.400201334E0,2.786946159E0
1.154570454E1,1.714589863E0,1.635006627E0,2.961195483E0,3.792326958E0
1.155569454E1,2.049521592E0,2.397871803E0,3.727038061E0,4.882739052E0
1.156568454E1,1.973347867E0,3.217032217E0,4.610720161E0,5.958367100E0
1.157567354E1,2.183387747E0,3.859735358E0,5.639646513E0,7.174284068E0
1.158566354E1,2.656901702E0,4.449396651E0,6.524057761E0,8.331841746E0
1.159565354E1,3.103571968E0,5.217409716E0,7.199660845E0,9.417464595E0
1.160564254E1,3.889396529E0,5.958669430E0,7.882909164E0,1.061948227E1
1.161563254E1,4.694451412E0,6.416359066E0,8.522603327E0,1.165514072E1
1.162562254E1,5.332650735E0,6.709782872E0,9.502360443E0,1.279660908E1
1.163561154E1,5.750879266E0,6.941127375E0,1.053714804E1,1.386662722E1
1.164560154E1,6.166712778E0,7.145778753E0,1.125507854E1,1.468901948E1
1.165559154E1,6.644732598E0,7.125521659E0,1.145914519E1,1.504119473E1
1.166558054E1,7.140882879E0,7.079475421E0,1.126430544E1,1.509952839E1
1.167557054E1,7.321789885E0,7.002444786E0,1.079675974E1,1.480583875E1
1.168556054E1,7.212651604E0,6.735127044E0,1.012307162E1,1.413721537E1
1.169554954E1,6.887981447E0,6.190886337E0,9.334242468E0,1.314912334E1
1.170553954E1,6.628788995E0,5.555489293E0,8.385527050E0,1.204663309E1
1.171552954E1,6.495201752E0,5.251350464E0,7.150757073E0,1.099534693E1
1.172551854E1,6.302645924E0,4.902274613E0,5.857035466E0,9.902550504E0
1.173550854E1,5.911861299E0,4.479054898E0,4.571633863E0,8.712741990E0
1.174549854E1,5.497280846E0,3.973546733E0,3.365270829E0,7.571936218E0
1.175548754E1,4.998836117E0,3.488599132E0,2.354071480E0,6.534549637E0
1.176547754E1,4.315967867E0,3.029395067E0,1.532981485E0,5.491342763E0
1.177546754E1,3.456998439E0,2.522648461E0,9.485400009E-1,4.383414377E0
1.178545654E1,2.567596885E0,2.002239836E0,7.696245575E-1,3.345719667E0
1.179544654E1,1.905428364E0,1.826981242E0,1.288690662E0,2.937557034E0
1.180543654E1,2.129237852E0,1.707324405E0,2.125669296E0,3.459346819E0
1.181542554E1,2.723404425E0,1.661830729E0,2.782015160E0,4.232992013E0
1.182541554E1,2.931362696E0,1.910750792E0,3.032045610E0,4.630027692E0
1.183540554E1,2.445587714E0,2.281833516E0,2.744045681E0,4.326366855E0
1.184539454E1,2.005167245E0,2.703977343E0,2.681971639E0,4.304086550E0
1.185538454E1,2.247635491E0,2.840671797E0,2.823777729E0,4.592929590E0
1.186537454E1,2.340850925E0,3.178827387E0,2.851726250E0,4.869996840E0
1.187536354E1,2.627860921E0,3.483949426E0,3.086763854E0,5.345247208E0
1.188535354E1,2.942880541E0,3.546636548E0,3.132081529E0,5.572172950E0
1.189534354E1,2.594196454E0,3.547153442E0,2.921864771E0,5.277257481E0
1.190533254E1,1.684241644E0,3.398222520E0,2.283186269E0,4.426909278E0
1.191532254E1,4.937166703E-1,3.047969040E0,1.544409283E0,3.452400824E0
1.192531254E1,-5.453662956E-1,2.622796940E0,8.283545762E-1,2.804043418E0
1.193529842E1,-1.231649027E0,2.135082144E0,7.863744915E-2,2.466114137E0
1.194528842E1,-1.964181772E0,1.646680008E0,-6.835038418E-1,2.652685919E0
1.195527842E1,-2.757407446E0,1.068121116E0,-1.553596428E0,3.340335372E0
1.196526742E1,-3.425490133E0,4.793716961E-1,-2.280521693E0,4.143013284E0
1.197525742E1,-4.000654132E0,-1.124916583E-2,-2.965600190E0,4.979974349E0
1.198524742E1,-4.374197657E0,-3.766957587E-1,-3.508038785E0,5.619772322E0
1.199523642E1,-4.797347205E0,-5.672129551E-1,-4.059967411E0,6.310277816E0
1.200522642E1,-5.051242372E0,-8.315322456E-1,-4.378604996E0,6.736369726E0
1.201521642E1,-4.952420919E0,-1.293808145E0,-4.350358266E0,6.717591050E0
1.202520542E1,-5.023532417E0,-1.575165345E0,-4.360230120E0,6.835834295E0
1.203519542E1,-5.186052268E0,-1.839165962E0,-4.305680861E0,6.986884659E0
1.204518542E1,-5.427150511E0,-2.105198194E0,-4.171111286E0,7.161284205E0
1.205517442E1,-5.621744678E0,-2.235713895E0,-4.112919796E0,7.315636615E0
1.206516442E1,-5.702803459E0,-2.436868931E0,-4.032160977E0,7.397203500E0
1.207515442E1,-5.706802370E0,-2.551159485E0,-4.082707232E0,7.466224371E0
1.208514342E1,-5.871620176E0,-2.663297679E0,-4.100246540E0,7.640752562E0
1.209513342E1,-6.062321852E0,-2.901417350E0,-4.339548519E0,8.000103139E0
1.210512342E1,-6.173499641E0,-3.291995861E0,-4.705925111E0,8.431788999E0
1.211511242E1,-6.418716663E0,-3.614266613E0,-5.322084231E0,9.087762504E0
1.212510242E1,-6.755573587E0,-4.044838910E0,-5.895177439E0,9.836239797E0
1.213509242E1,-6.916280801E0,-4.509484978E0,-6.273406922E0,1.036947584E1
1.214508142E1,-7.039104490E0,-4.785282353E0,-6.638312940E0,1.079421687E1
1.215507142E1,-7.083587183E0,-4.987867910E0,-6.920710067E0,1.108838408E1
1.216506142E1,-6.971084999E0,-5.175027927E0,-7.123343571E0,1.123026998E1
1.217505042E1,-6.588775914E0,-5.199754633E0,-7.276028405E0,1.110810540E1
1.218504042E1,-6.013422173E0,-5.246251107E0,-7.420575085E0,1.089721669E1
1.219503042E1,-5.388628469E0,-5.142851869E0,-7.541575027E0,1.060007528E1
1.220501942E1,-4.793274035E0,-4.965588849E0,-7.679831856E0,1.032532643E1
1.221500942E1,-4.422179324E0,-4.801482941E0,-7.830387719E0,1.019435531E1
1.222499942E1,-4.184523921E0,-4.754870984E0,-7.801346937E0,1.004888315E1
1.223498842E1,-4.188803791E0,-4.738188001E0,-7.746671378E0,1.000037100E1
1.224497842E1,-4.231108981E0,-4.768054701E0,-7.618360078E0,9.933581384E0
1.225496842E1,-4.274585368E0,-4.858421372E0,-7.379124758E0,9.814673733E0
1.226495742E1,-4.351676229E0,-4.871711217E0,-7.158845526E0,9.691218986E0
1.227494742E1,-4.332774812E0,-4.858286594E0,-6.974447733E0,9.540377738E0
1.228493742E1,-4.229558884E0,-4.780901619E0,-6.936542573E0,9.426654311E0
1.229492642E1,-4.030347755E0,-4.665548625E0,-6.945930278E0,9.287464370E0
1.230491642E1,-3.788326821E0,-4.497050289E0,-7.050360380E0,9.180548071E0
1.231490642E1,-3.611028718E0,-4.391058103E0,-7.207276259E0,9.179637833E0
1.232489542E1,-3.622876346E0,-4.354091713E0,-7.369742900E0,9.294969504E0
1.233488542E1,-3.831166447E0,-4.262419944E0,-7.605153556E0,9.522836801E0
1.234487542E1,-4.029592879E0,-4.172943803E0,-7.767475771E0,9.694573669E0
1.235486442E1,-4.151048904E0,-4.127285820E0,-7.903342844E0,9.835066006E0
1.236485442E1,-4.219732638E0,-4.086358526E0,-7.961091700E0,9.893606551E0
1.237484442E1,-4.273756233E0,-4.026968357E0,-7.945905311E0,9.880226601E0
1.238483342E1,-4.145832603E0,-3.927199070E0,-7.845116270E0,9.703435979E0
1.239482342E1,-4.004204854E0,-3.781228594E0,-7.710292341E0,9.475228450E0
1.240481342E1,-3.698110716E0,-3.629610292E0,-7.405786307E0,9.038570936E0
1.241480242E1,-3.317755769E0,-3.302892732E0,-6.904049596E0,8.341612827E0
1.242479242E1,-3.087746186E0,-2.990820108E0,-6.328795257E0,7.650675188E0
1.243478242E1,-2.668218988E0,-2.750568542E0,-5.715686629E0,6.881431066E0
1.244477142E1,-2.038361011E0,-2.387176953E0,-5.120414348E0,6.006011365E0
1.245476142E1,-1.762959493E0,-1.990796251E0,-4.736552827E0,5.431963601E0
1.246475142E1,-1.747947351E0,-1.743831789E0,-4.343099533E0,4.995876580E0
1.247474042E1,-1.438536673E0,-1.648616314E0,-3.748996695E0,4.340771789E0
1.248473042E1,-1.097843390E0,-1.305806924E0,-2.919022440E0,3.380988588E0
1.249472042E1,-5.572355586E-1,-7.409767091E-1,-2.043286706E0,2.243786646E0
1.250470942E1,6.418734205E-1,-1.227298406E-1,-1.011581172E0,1.204309167E0
1.251469942E1,2.358680840E0,4.742378408E-1,1.911162436E-1,2.413462710E0
1.252468942E1,4.098359059E0,1.281207103E0,1.820729983E0,4.664021472E0
1.253467842E1,6.291877107E0,2.291286710E0,3.874924085E0,7.736455841E0
1.254466842E1,8.774828821E0,3.068200698E0,5.870127382E0,1.099408349E1
1.255465842E1,1.035805017E1,3.537992901E0,8.238787665E0,1.369978902E1
1.256464742E1,1.104400341E1,3.949770492E0,1.064125655E1,1.583688856E1
1.257463742E1,1.115115714E1,3.972438393E0,1.258773851E1,1.727945986E1
1.258462742E1,1.085340055E1,3.372861976E0,1.409831288E1,1.810897367E1
1.259461642E1,9.918129051E0,2.595721700E0,1.473384675E1,1.794974359E1
1.260460642E1,8.585724605E0,1.869959008E0,1.420124726E1,1.669990531E1
1.261459642E1,7.534929081E0,1.141750717E0,1.258290169E1,1.471081799E1
1.262458542E1,6.706275712E0,6.358550276E-1,1.048872023E1,1.246562063E1
1.263457542E1,6.032301078E0,3.771084259E-1,8.505728263E0,1.043447557E1
1.264456542E1,5.949641914E0,1.275736740E-1,6.901691998E0,9.113060210E0
1.265455442E1,6.329972302E0,8.878470719E-2,5.795135672E0,8.582542136E0
1.266454442E1,6.983279952E0,4.038508129E-1,5.029796539E0,8.615575871E0
1.267453442E1,7.507855888E0,1.012273336E0,4.634264560E0,8.880822335E0
1.268452342E1,8.557470274E0,1.476110588E0,4.482779574E0,9.772641028E0
1.269451342E1,9.577838641E0,2.147450175E0,4.653096687E0,1.086268126E1
1.270450342E1,1.040394613E1,2.931977531E0,5.102980875E0,1.195320046E1
1.271449242E1,1.157325829E1,3.522721728E0,5.815478135E0,1.342272929E1
1.272448242E1,1.323291560E1,4.132508553E0,6.816279380E0,1.544827974E1
1.273447242E1,1.466030631E1,4.713381481E0,7.694905978E0,1.721488089E1
1.274446142E1,1.534470303E1,5.031222675E0,7.758112625E0,1.791539629E1
1.275445142E1,1.553038370E1,5.099086629E0,7.380383663E0,1.793498161E1
1.276444142E1,1.516498301E1,4.860171152E0,6.900676922E0,1.735561336E1
1.277443042E1,1.461015825E1,4.427103556E0,6.420487785E0,1.656135965E1
1.278442042E1,1.428317494E1,4.052518350E0,6.040240427E0,1.602861490E1
1.279441042E1,1.420244711E1,3.765917367E0,5.688345049E0,1.575591657E1
1.280439942E1,1.403307198E1,3.610536967E0,5.254996787E0,1.541356797E1
1.281438942E1,1.359177326E1,3.441373217E0,4.774474944E0,1.481131193E1
1.282437942E1,1.327580142E1,3.272546268E0,4.596426643E0,1.442510313E1
1.283436842E1,1.300762239E1,2.956137349E0,4.678852503E0,1.413607615E1
1.284435842E1,1.279439431E1,2.581837487E0,5.275241017E0,1.407801756E1
1.285434842E1,1.222847856E1,2.220075517E0,5.942166833E0,1.377584008E1
1.286433742E1,1.121540752E1,1.843457526E0,6.712977791E0,1.320029440E1
1.287432742E1,1.012803006E1,1.342476567E0,7.182332037E0,1.248859999E1
1.288431742E1,8.974677882E0,9.732392246E-1,7.320327496E0,1.162235915E1
1.289430642E1,7.908728714E0,6.370269558E-1,7.202210816E0,1.071567235E1
1.290429642E1,6.931664826E0,2.849324799E-1,6.882223694E0,9.772111683E0
1.291428542E1,6.292387569E0,-7.043555975E-3,6.401170338E0,8.976033235E0
1.292427542E1,5.679616910E0,-1.930730143E-1,5.815330786E0,8.131014548E0
1.293426525E1,4.649152740E0,-5.173800597E-1,5.140536371E0,6.950353769E0
1.294425525E1,3.316443362E0,-9.984652823E-1,4.235226005E0,5.471093932E0
1.295424425E1,1.885044093E0,-1.553591750E0,2.978347120E0,3.851959258E0
1.296423425E1,4.259377930E-1,-2.096262479E0,1.358854326E0,2.534210817E0
1.297422425E1,-1.138682098E0,-2.614994123E0,-5.170412135E-1,2.898641544E0
1.298421325E1,-2.881819530E0,-2.976936772E0,-2.389800307E0,4.783114242E0
1.299420325E1,-4.522354699E0,-3.311282317E0,-4.126937910E0,6.960452509E0
1.300419225E1,-5.819319171E0,-3.861253295E0,-5.603922365E0,8.954200048E0
1.301418225E1,-6.922820912E0,-4.395318677E0,-6.764915099E0,1.063053865E1
1.302417225E1,-7.669526138E0,-4.848746862E0,-7.533400034E0,1.179339194E1
1.303416125E1,-8.083576834E0,-5.443474767E0,-8.080512308E0,1.265979112E1
1.304415125E1,-8.033601267E0,-6.007771423E0,-8.344812888E0,1.304867690E1
1.305414125E1,-8.155432098E0,-6.194443198E0,-8.430565814E0,1.326486484E1
1.306413025E1,-8.269598984E0,-6.242684482E0,-8.350177124E0,1.330724746E1
1.307412025E1,-8.355814424E0,-6.203218115E0,-8.264556929E0,1.328918549E1
1.308411025E1,-8.268818965E0,-6.163885065E0,-8.191864344E0,1.317093344E1
1.309409925E1,-8.164809278E0,-6.212227505E0,-8.061864368E0,1.304797065E1
1.310408925E1,-8.106485640E0,-6.201632935E0,-7.857172059E0,1.288062550E1
1.311407925E1,-8.087185736E0,-6.272574279E0,-7.735918933E0,1.282934928E1
1.312406825E1,-7.999837105E0,-6.273367161E0,-7.532845134E0,1.265291607E1
1.313405825E1,-7.808039076E0,-6.156669601E0,-7.205820302E0,1.227981681E1
1.314404825E1,-7.567130283E0,-6.148376495E0,-6.828531051E0,1.190347977E1
1.315403725E1,-7.391260654E0,-6.143678842E0,-6.467330999E0,1.158455411E1
1.316402725E1,-7.149437941E0,-6.116857663E0,-6.105816366E0,1.121656828E1
1.317401725E1,-6.801430961E0,-6.106654272E0,-5.710955063E0,1.077801917E1
1.318400625E1,-6.564452666E0,-6.034764510E0,-5.434261310E0,1.044229943E1
1.319399625E1,-6.269450696E0,-5.908495057E0,-5.174114007E0,1.004926772E1
1.320398625E1,-6.017085453E0,-5.841521634E0,-5.140016554E0,9.836079632E0
1.321397525E1,-5.842613309E0,-5.754715624E0,-5.230201085E0,9.726658500E0
1.322396525E1,-5.629793370E0,-5.632885963E0,-5.269203182E0,9.549265932E0
1.323395525E1,-5.360468279E0,-5.504003389E0,-5.207780521E0,9.281683653E0
1.324394425E1,-5.192646173E0,-5.472712015E0,-5.116127754E0,9.115312078E0
1.325393425E1,-5.179384688E0,-5.478868548E0,-5.022067689E0,9.058983949E0
1.326392425E1,-5.154348664E0,-5.346183531E0,-4.788553285E0,8.836245303E0
1.327391325E1,-4.997683046E0,-5.244653063E0,-4.474026877E0,8.514701291E0
1.328390325E1,-4.795615552E0,-5.222817221E0,-4.206777547E0,8.244557330E0
1.329389325E1,-4.642774013E0,-5.174279484E0,-3.904301081E0,7.973210498E0
1.330388225E1,-4.816231665E0,-5.057363237E0,-3.662018777E0,7.885644672E0
1.331387225E1,-5.174074831E0,-5.056235894E0,-3.435301761E0,8.008612237E0
1.332386225E1,-5.513255439E0,-5.072679434E0,-3.281733997E0,8.179109988E0
1.333385125E1,-5.770450482E0,-4.948192213E0,-3.235807042E0,8.261546595E0
1.334384125E1,-5.909963878E0,-4.821019073E0,-3.377998463E0,8.341508949E0
1.335383125E1,-6.048383260E0,-4.657047651E0,-3.697573357E0,8.481926763E0
1.336382025E1,-6.168704925E0,-4.451394937E0,-4.015451388E0,8.601842081E0
1.337381025E1,-6.137698894E0,-4.342478558E0,-4.297397695E0,8.660028562E0
1.338380025E1,-6.051378788E0,-4.136798070E0,-4.549220901E0,8.627148678E0
1.339378925E1,-5.959538911E0,-3.951791290E0,-4.660033824E0,8.535143447E0
1.340377925E1,-5.975208864E0,-3.940510841E0,-4.662075672E0,8.541996033E0
1.341376925E1,-6.102685767E0,-3.781886406E0,-4.651803283E0,8.554806376E0
1.342375825E1,-6.081662103E0,-3.687786872E0,-4.644439884E0,8.494539881E0
1.343374825E1,-5.946956288E0,-3.564730464E0,-4.741218320E0,8.399568056E0
1.344373825E1,-5.972136152E0,-3.238773335E0,-4.760077929E0,8.295444824E0
1.345372725E1,-5.956408312E0,-2.679023473E0,-4.534184201E0,7.950773114E0
1.346371725E1,-5.746886203E0,-1.986755240E0,-3.946815602E0,7.249224152E0
1.347370725E1,-5.328581657E0,-1.243951276E0,-2.857512070E0,6.173052121E0
1.348369625E1,-4.930021405E0,5.769447684E-2,-1.467930626E0,5.144245331E0
1.349368625E1,-4.555827670E0,1.644438186E0,3.768010086E-1,4.858160321E0
1.350367625E1,-3.521386224E0,2.910941588E0,2.304180697E0,5.116931752E0
1.351366525E1,-2.041820809E0,4.230697044E0,3.939335843E0,6.130758239E0
1.352365525E1,-2.187741584E-1,5.177828743E0,5.873107123E0,7.832698125E0
1.353364525E1,2.183958435E0,6.214441845E0,7.953185095E0,1.032676692E1
1.354363425E1,4.718504811E0,7.177747235E0,9.889363089E0,1.309900169E1
1.355362425E1,6.802766465E0,6.880647284E0,1.180312403E1,1.526219760E1
1.356361425E1,7.503420190E0,6.355468501E0,1.306117586E1,1.634893297E1
1.357360325E1,7.017838166E0,5.660638602E0,1.349227587E1,1.622758115E1
1.358359325E1,5.528389202E0,5.194689775E0,1.331522569E1,1.532459214E1
1.359358325E1,4.102722251E0,5.075422947E0,1.284300104E1,1.440607246E1
1.360357225E1,3.275280426E0,4.746527592E0,1.250816024E1,1.377356376E1
1.361356225E1,2.971828644E0,4.379566863E0,1.211226749E1,1.321814643E1
1.362355225E1,2.927802034E0,4.089174837E0,1.165796339E1,1.269651472E1
1.363354125E1,3.249000115E0,3.660880909E0,1.135474316E1,1.236479854E1
1.364353125E1,3.675369725E0,3.212294511E0,1.089363173E1,1.193726899E1
1.365352125E1,3.988560044E0,2.910379963E0,1.033201836E1,1.145118012E1
1.366351025E1,4.065607635E0,3.011556382E0,9.140493808E0,1.044735681E1
1.367350025E1,4.136843094E0,3.265923126E0,7.479284638E0,9.149831875E0
1.368349025E1,4.620631776E0,3.778174301E0,6.175474831E0,8.588441561E0
1.369347925E1,5.382273715E0,4.605819317E0,5.587566533E0,9.022380046E0
1.370346925E1,6.032318619E0,5.538614813E0,5.441406607E0,9.832295146E0
1.371345925E1,6.905213192E0,6.233216085E0,6.125402784E0,1.113802098E1
1.372344825E1,7.856698435E0,6.744097842E0,7.475707312E0,1.277093441E1
1.373343825E1,8.294613372E0,7.173161849E0,8.776891719E0,1.404594924E1
1.374342825E1,8.398165807E0,7.202876814E0,1.030694316E1,1.512096891E1
1.375341725E1,8.109330311E0,7.133553979E0,1.202273492E1,1.616152794E1
1.376340725E1,7.562183538E0,6.938141202E0,1.323843771E1,1.675054197E1
1.377339725E1,7.041328771E0,6.540950367E0,1.359514827E1,1.664909605E1
1.378338625E1,6.536657926E0,6.322063358E0,1.314345204E1,1.598270044E1
1.379337625E1,6.052507301E0,6.269206282E0,1.206758073E1,1.488496882E1
1.380336525E1,5.612129517E0,6.400071647E0,1.090337436E1,1.383258787E1
1.381335525E1,5.661001714E0,6.674642860E0,1.013564313E1,1.339138004E1
1.382334525E1,6.010059439E0,6.922043817E0,9.671965365E0,1.332600537E1
1.383333425E1,6.240137435E0,6.894167216E0,9.349617137E0,1.318651574E1
1.384332425E1,6.275100861E0,6.668778103E0,9.046395151E0,1.287193682E1
1.385331425E1,5.758497604E0,6.246139017E0,8.715157401E0,1.217080588E1
1.386330325E1,4.994663544E0,5.625506777E0,8.429755974E0,1.129839706E1
1.387329325E1,4.193696156E0,4.931606001E0,8.111240011E0,1.037786296E1
1.388328325E1,3.282793513E0,4.246060604E0,7.768288534E0,9.442037420E0
1.389327225E1,2.450016103E0,3.692208244E0,7.222051588E0,8.473075579E0
1.390326225E1,1.838757534E0,3.184879548E0,6.395696175E0,7.377629468E0
1.391325225E1,1.148054016E0,2.654022241E0,5.488397756E0,6.203577355E0
1.392324125E1,4.061470145E-1,2.046656748E0,4.436221704E0,4.902430240E0
1.393323113E1,-3.176160765E-1,1.082712258E0,3.337433404E0,3.523011146E0
1.394322113E1,-9.763470197E-1,1.281505018E-1,2.297862196E0,2.499969345E0
1.395321013E1,-1.851628425E0,-7.591849387E-1,1.248481114E0,2.358727345E0
1.396320013E1,-2.767957284E0,-1.635231745E0,1.816121793E-1,3.220023815E0
1.397319013E1,-3.466236455E0,-2.670528638E0,-1.140465499E0,4.521855806E0
1.398317912E1,-4.314683819E0,-3.535151739E0,-2.502855052E0,6.113761337E0
1.399316913E1,-5.300865270E0,-3.881729659E0,-3.797595243E0,7.588723700E0
1.400315913E1,-6.420876040E0,-4.193251183E0,-4.956694649E0,9.131255469E0
1.401314813E1,-7.253286245E0,-4.695626118E0,-5.704367589E0,1.035368898E1
1.402313813E1,-7.771860598E0,-5.282977468E0,-6.216399493E0,1.126744384E1
1.403312813E1,-8.170467044E0,-5.833679348E0,-6.750544397E0,1.209785915E1
1.404311713E1,-8.604250338E0,-6.362232560E0,-7.376749034E0,1.299721329E1
1.405310713E1,-9.136094947E0,-6.853575261E0,-8.125805426E0,1.401671996E1
1.406309713E1,-9.354629955E0,-7.112965933E0,-8.849810007E0,1.471130596E1
1.407308613E1,-9.665187272E0,-7.106294260E0,-9.641209595E0,1.539052259E1
1.408307612E1,-9.954547849E0,-7.050758575E0,-1.033993315E1,1.599126127E1
1.409306613E1,-1.000855039E1,-6.874707098E0,-1.089802767E1,1.631562704E1
1.410305513E1,-9.697032378E0,-6.583819229E0,-1.102220733E1,1.608938056E1
1.411304513E1,-8.810212662E0,-6.430985291E0,-1.063321078E1,1.523294425E1
1.412303513E1,-7.491142207E0,-6.241681100E0,-9.765907901E0,1.380031708E1
1.413302412E1,-6.427385745E0,-5.924505903E0,-8.687686597E0,1.232424262E1
1.414301413E1,-5.516360895E0,-5.588788601E0,-7.541400779E0,1.088749380E1
1.415300413E1,-4.803548470E0,-5.172035322E0,-6.581917130E0,9.651199945E0
1.416299313E1,-4.197947082E0,-4.853393936E0,-5.640140018E0,8.543381756E0
1.417298313E1,-3.897762725E0,-4.658554478E0,-4.892040816E0,7.799150430E0
1.418297312E1,-3.937224414E0,-4.490720970E0,-4.353507577E0,7.390625084E0
1.419296213E1,-4.081430785E0,-4.396943910E0,-4.020556008E0,7.221915509E0
1.420295213E1,-4.337585608E0,-4.351056131E0,-3.945085995E0,7.301372602E0
1.421294213E1,-4.536479818E0,-4.373044294E0,-4.116304749E0,7.526428789E0
1.422293113E1,-4.559574566E0,-4.362337749E0,-4.485763993E0,7.742208307E0
1.423292112E1,-4.429365844E0,-4.189039434E0,-5.015670251E0,7.894572897E0
1.424291113E1,-4.196737293E0,-4.127882820E0,-5.542354692E0,8.085154050E0
1.425290013E1,-3.951269426E0,-4.089613086E0,-6.073224571E0,8.319947233E0
1.426289013E1,-3.939168028E0,-4.023385183E0,-6.563856250E0,8.648056542E0
1.427288013E1,-4.219323333E0,-3.964870049E0,-7.052941926E0,9.125068422E0
1.428286913E1,-4.519959680E0,-3.920076577E0,-7.536156996E0,9.622406048E0
1.429285913E1,-4.778665059E0,-3.931383922E0,-7.925448827E0,1.005505636E1
1.430284913E1,-5.093862142E0,-3.978345543E0,-8.268400304E0,1.049481340E1
1.431283813E1,-5.352129564E0,-3.911045845E0,-8.497802362E0,1.077748651E1
1.432282813E1,-5.532516167E0,-3.944129098E0,-8.658421867E0,1.100605100E1
1.433281812E1,-5.697843851E0,-3.923111574E0,-8.650502983E0,1.107643584E1
1.434280713E1,-5.847609170E0,-3.862896363E0,-8.479502916E0,1.100083956E1
1.435279713E1,-5.956524671E0,-3.874315682E0,-8.302181423E0,1.092779596E1
1.436278713E1,-5.895509561E0,-3.895015703E0,-8.048866593E0,1.071038906E1
1.437277613E1,-5.724586092E0,-3.867754814E0,-7.724093524E0,1.036301279E1
1.438276613E1,-5.657665293E0,-3.678710531E0,-7.216590289E0,9.880347319E0
1.439275613E1,-5.619268967E0,-3.662991461E0,-6.806714505E0,9.556414208E0
1.440274513E1,-5.650500115E0,-3.634647376E0,-6.459771134E0,9.320271251E0
1.441273513E1,-5.738743955E0,-3.531849816E0,-6.090180327E0,9.082810232E0
1.442272513E1,-5.634384604E0,-3.375569237E0,-5.778791535E0,8.748439241E0
1.443271413E1,-5.435914902E0,-3.088431480E0,-5.493785965E0,8.322815873E0
1.444270413E1,-5.073946525E0,-2.793421616E0,-5.191453341E0,7.778131232E0
1.445269413E1,-4.441216981E0,-2.385374549E0,-4.670164125E0,6.872034121E0
1.446268313E1,-3.634805251E0,-1.622030778E0,-4.004833429E0,5.646369086E0
1.447267313E1,-2.444596903E0,-7.052078292E-1,-3.008612309E0,3.940192905E0
1.448266213E1,-8.953075343E-1,3.802374172E-1,-1.782520183E0,2.030648733E0
1.449265212E1,1.094283020E0,1.892020114E0,-4.535837209E-1,2.232248560E0
1.450264213E1,3.569611720E0,3.850877118E0,1.125717652E0,5.370160393E0
1.451263113E1,6.601504133E0,6.414992571E0,3.412040368E0,9.817026331E0
1.452262113E1,1.063207291E1,9.545048625E0,6.622844131E0,1.574836474E1
1.453261113E1,1.632709607E1,1.286872879E1,1.110856369E1,2.357071136E1
1.454260012E1,2.343980589E1,1.497692719E1,1.674636014E1,3.246803700E1
1.455259013E1,2.864088550E1,1.548880415E1,2.259090478E1,3.963019499E1
1.456258013E1,2.865764596E1,1.498471335E1,2.769055392E1,4.257427724E1
1.457256913E1,2.469102818E1,1.359785554E1,3.124295962E1,4.207934260E1
1.458255913E1,1.988166056E1,1.235265822E1,3.256315800E1,4.010271625E1
1.459254913E1,1.601296025E1,1.174944074E1,3.294466310E1,3.846836467E1
1.460253813E1,1.449479737E1,1.146502866E1,3.271537272E1,3.757448130E1
1.461252813E1,1.498895843E1,1.089536251E1,3.125502593E1,3.633530576E1
1.462251813E1,1.597155729E1,1.048226374E1,2.848026015E1,3.429422274E1
1.463250713E1,1.669504848E1,1.044268744E1,2.485195525E1,3.170794923E1
1.464249712E1,1.692877923E1,1.038411939E1,2.060491436E1,2.861775669E1
1.465248713E1,1.634821153E1,1.026091622E1,1.620368239E1,2.520138379E1
1.466247613E1,1.464995674E1,1.009753917E1,1.203817040E1,2.148252956E1
1.467246613E1,1.232893373E1,9.532115754E0,8.191346866E0,1.760573773E1
1.468245613E1,9.933838180E0,8.463844072E0,4.876524644E0,1.393191624E1
1.469244513E1,7.548570635E0,6.955563565E0,2.039664356E0,1.046522880E1
1.470243513E1,5.051815399E0,4.887979632E0,-4.865409672E-1,7.046268929E0
1.471242513E1,2.078355966E0,2.449005996E0,-2.501280981E0,4.071068710E0
1.472241413E1,-9.945447242E-1,1.243910345E-1,-4.122010462E0,4.242117700E0
1.473240413E1,-4.096353464E0,-2.309204333E0,-5.602367005E0,7.314304643E0
1.474239412E1,-6.825960615E0,-4.644879595E0,-7.168675280E0,1.093428324E1
1.475238313E1,-9.027536711E0,-6.238079799E0,-8.447736747E0,1.384826035E1
1.476237313E1,-1.055405351E1,-7.489181051E0,-9.488481492E0,1.604702961E1
1.477236313E1,-1.127832473E1,-8.660793498E0,-1.025732018E1,1.753346999E1
1.478235213E1,-1.136162182E1,-9.536915733E0,-1.070541454E1,1.829330786E1
1.479234213E1,-1.129290534E1,-1.022900446E1,-1.108397614E1,1.884188872E1
1.480233213E1,-1.118058267E1,-1.088173850E1,-1.128837375E1,1.925733739E1
1.481232113E1,-1.105709532E1,-1.118196729E1,-1.120334939E1,1.930830876E1
1.482231113E1,-1.097881865E1,-1.097818481E1,-1.090131263E1,1.897086234E1
1.483230113E1,-1.039010343E1,-1.042852549E1,-1.010355478E1,1.785469721E1
1.484229013E1,-9.287261844E0,-9.755172413E0,-8.826449211E0,1.610350356E1
1.485228013E1,-7.879486789E0,-9.026259094E0,-7.259495988E0,1.400928076E1
1.486227013E1,-6.456720057E0,-8.281302770E0,-5.767485359E0,1.198052991E1
1.487225913E1,-5.260209580E0,-7.654595273E0,-4.686377285E0,1.040311327E1
1.488224913E1,-4.602369753E0,-7.136716738E0,-3.933130778E0,9.358635096E0
1.489223813E1,-4.498423800E0,-6.799321285E0,-3.570178900E0,8.900155280E0
1.490222812E1,-4.732328798E0,-6.654375241E0,-3.550887766E0,8.904181581E0
1.491221813E1,-4.985127904E0,-6.723607444E0,-3.637649921E0,9.126384511E0
1.492220813E1,-5.253692273E0,-6.822590280E0,-3.784555952E0,9.405949415E0
1.493219713E1,-5.481126158E0,-7.036217719E0,-3.977012962E0,9.765640576E0
1.494218762E1,-5.676007424E0,-7.106583112E0,-4.165431885E0,1.000356969E1
1.495217662E1,-5.595359702E0,-7.069885402E0,-4.342016044E0,1.000721905E1
1.496216663E1,-5.338060579E0,-7.046184883E0,-4.481264561E0,9.910870003E0
1.497215663E1,-4.946194219E0,-6.979751742E0,-4.583207842E0,9.705027860E0
1.498214563E1,-4.596592119E0,-6.832711810E0,-4.762082355E0,9.512730320E0
1.499213563E1,-4.708907191E0,-6.661112988E0,-5.040280012E0,9.588986170E0
1.500212563E1,-5.152867565E0,-6.746086480E0,-5.402964672E0,1.006249244E1
1.501211463E1,-5.585796581E0,-6.847649108E0,-5.750588075E0,1.054327677E1
1.502210463E1,-5.963644241E0,-6.986730979E0,-5.996621368E0,1.096991022E1
1.503209463E1,-6.272638013E0,-7.029567096E0,-6.113085625E0,1.123078880E1
1.504208363E1,-6.512318891E0,-6.986155613E0,-6.291988789E0,1.143703591E1
1.505207363E1,-6.563367423E0,-6.962305405E0,-6.456689066E0,1.154297718E1
1.506206363E1,-6.464150113E0,-6.831018457E0,-6.613780947E0,1.149739746E1
1.507205263E1,-6.363741142E0,-6.610898269E0,-6.795662683E0,1.141850290E1
1.508204263E1,-6.151638072E0,-6.418632463E0,-6.979327235E0,1.130276525E1
1.509203263E1,-6.055972361E0,-6.030922889E0,-7.115363292E0,1.112093642E1
1.510202162E1,-6.051895097E0,-5.702964258E0,-7.246725084E0,1.103015231E1
1.511201163E1,-6.128139281E0,-5.476058961E0,-7.219216273E0,1.093884804E1
1.512200163E1,-6.080380978E0,-5.307805331E0,-7.043780508E0,1.071254751E1
1.513199063E1,-5.936659341E0,-5.125113171E0,-6.715354099E0,1.032505157E1
1.514198063E1,-5.773359472E0,-4.900048870E0,-6.290531663E0,9.844437369E0
1.515197063E1,-5.371117812E0,-4.638763407E0,-5.950152960E0,9.261282457E0
1.516195963E1,-4.812429221E0,-4.159775873E0,-5.505423678E0,8.412663086E0
1.517194963E1,-3.956823696E0,-3.760407536E0,-5.055355303E0,7.440009129E0
1.518193963E1,-2.865701680E0,-3.328112943E0,-4.655464225E0,6.400150703E0
1.519192863E1,-1.680861661E0,-2.618500698E0,-4.273555089E0,5.286313926E0
1.520191862E1,-8.036547679E-1,-2.119240867E0,-3.963439820E0,4.565730834E0
1.521190863E1,-6.394643676E-1,-1.560078651E0,-3.526036515E0,3.908413179E0
1.522189763E1,-1.437818635E-1,-1.236322998E0,-2.634020378E0,2.913285282E0
1.523188763E1,1.143929390E0,-6.451186252E-1,-9.147314000E-1,1.600464315E0
1.524187763E1,3.689768493E0,5.838678718E-1,1.448566986E0,4.006699332E0
1.525186662E1,7.494841155E0,2.717263094E0,4.460889646E0,9.135409082E0
1.526185663E1,1.260464398E1,5.193655402E0,7.664674119E0,1.563963988E1
1.527184663E1,1.781406873E1,7.138251632E0,1.048967567E1,2.187073334E1
1.528183563E1,2.139379029E1,7.821077782E0,1.267184369E1,2.606605346E1
1.529182563E1,2.190359499E1,6.874910581E0,1.399299049E1,2.688560306E1
1.530181563E1,1.887020686E1,4.879327507E0,1.450514928E1,2.429592351E1
1.531180463E1,1.338712539E1,3.109604540E0,1.458574613E1,2.004067755E1
1.532179463E1,8.803504736E0,1.662928836E0,1.338126882E1,1.610358293E1
1.533178363E1,6.208488795E0,1.316544458E-1,1.192600794E1,1.344590389E1
1.534177363E1,4.752379485E0,-8.425027916E-1,1.025646298E1,1.133534096E1
1.535176362E1,3.941549014E0,-1.170394765E0,8.450790163E0,9.397951209E0
1.536175263E1,3.939891329E0,-1.066901094E0,6.567391477E0,7.732506220E0
1.537174263E1,4.477091988E0,-7.798601085E-1,4.804817315E0,6.613531877E0
1.538173263E1,5.124340169E0,-4.106239352E-1,3.317792607E0,6.118432966E0
1.539172163E1,5.693713378E0,7.657104313E-2,2.012953105E0,6.039554235E0
1.540171163E1,5.749520373E0,6.236195827E-1,1.047529854E0,5.877346740E0
1.541170163E1,5.831054533E0,6.740991801E-1,4.763481009E-1,5.889186207E0
1.542169063E1,6.371048407E0,4.738612801E-1,4.271484590E-1,6.402910129E0
1.543168063E1,6.661084921E0,5.362925863E-1,7.871451545E-1,6.728837906E0
1.544167063E1,6.991944941E0,5.214114225E-1,1.425588014E0,7.154821110E0
1.545165963E1,7.457956919E0,5.542295051E-1,2.269718378E0,7.815363924E0
1.546164963E1,7.709538635E0,8.288746861E-1,3.168229017E0,8.376257775E0
1.547163963E1,7.793981200E0,9.728509694E-1,4.068217832E0,8.845506106E0
1.548162863E1,8.090274235E0,1.046195811E0,4.901936059E0,9.517144530E0
1.549161863E1,8.474302402E0,1.259137080E0,5.553671393E0,1.020992132E1
1.550160862E1,8.680846524E0,1.529596531E0,5.848625416E0,1.057843000E1
1.551159762E1,8.909704791E0,1.883004584E0,5.904490299E0,1.085318163E1
1.552158763E1,9.132235200E0,2.168290236E0,5.912857665E0,1.109329023E1
1.553157763E1,9.303256903E0,2.146987075E0,5.832906346E0,1.118851817E1
1.554156663E1,9.162504482E0,2.062914639E0,5.681064681E0,1.097641112E1
1.555155663E1,8.675820842E0,2.100886458E0,5.642779452E0,1.056051851E1
1.556154663E1,8.207292223E0,2.106708530E0,5.699320858E0,1.021176403E1
1.557153563E1,8.010219421E0,2.132053286E0,5.994418722E0,1.022948299E1
1.558152563E1,8.070272080E0,2.242645184E0,6.528339093E0,1.061969680E1
1.559151563E1,8.099907523E0,2.353911851E0,7.066657155E0,1.100395594E1
1.560150463E1,8.045049530E0,2.289017698E0,7.498537180E0,1.123345378E1
1.561149462E1,8.138512595E0,2.112481486E0,7.726535906E0,1.141916470E1
1.562148463E1,8.103413513E0,2.023801444E0,7.634501317E0,1.131577188E1
1.563147363E1,7.771075902E0,1.983800642E0,7.248086316E0,1.081017303E1
1.564146363E1,7.453686113E0,1.945911854E0,6.921235732E0,1.035603755E1
1.565145363E1,7.415067592E0,1.898306748E0,6.934897166E0,1.032858144E1
1.566144262E1,7.237428596E0,1.704421263E0,7.101420021E0,1.028180873E1
1.567143263E1,6.864331799E0,1.329196079E0,7.199676048E0,1.003599265E1
1.568142163E1,6.503386100E0,8.322131538E-1,7.102331017E0,9.665904788E0
1.569141163E1,5.970934550E0,1.677735740E-1,6.561220325E0,8.872982561E0
1.570140163E1,5.160073088E0,-6.206673235E-1,5.500274620E0,7.567337914E0
1.571139063E1,3.722024074E0,-1.406920193E0,4.039775805E0,5.670332988E0
1.572138063E1,2.012085963E0,-2.098734682E0,2.251579145E0,3.677334066E0
1.573137063E1,3.113098544E-1,-2.863985522E0,2.902183628E-1,2.895436685E0
1.574135963E1,-1.282972085E0,-3.388649166E0,-1.609783493E0,3.964891352E0
1.575134963E1,-2.512168497E0,-3.683440636E0,-3.324836748E0,5.561768143E0
1.576133962E1,-3.135191079E0,-4.061822732E0,-4.770609350E0,7.006178743E0
1.577132863E1,-3.930028245E0,-3.918575889E0,-5.589904835E0,7.877016889E0
1.578131863E1,-5.023246488E0,-3.600090331E0,-5.670732066E0,8.387541823E0
1.579130863E1,-6.079498633E0,-3.520371732E0,-5.071238095E0,8.664339362E0
1.580129763E1,-6.782231044E0,-3.498120445E0,-4.293673604E0,8.756205662E0
1.581128763E1,-6.969133199E0,-3.557218839E0,-3.531720593E0,8.584618440E0
1.582127763E1,-7.114710158E0,-3.622750046E0,-3.164628886E0,8.588264930E0
1.583126663E1,-7.241107079E0,-4.061695263E0,-3.388615252E0,8.967369373E0
1.584125663E1,-7.454267326E0,-4.789983222E0,-4.383420762E0,9.885566155E0
1.585124663E1,-7.922801793E0,-5.403855203E0,-5.897084801E0,1.125824358E1
1.586123563E1,-8.665644348E0,-5.848823637E0,-7.504464503E0,1.286930913E1
1.587122563E1,-9.498334050E0,-5.964175168E0,-8.946961495E0,1.434705040E1
1.588121563E1,-1.006337389E1,-5.897511063E0,-9.966555691E0,1.534224114E1
1.589120463E1,-1.005304069E1,-5.751452293E0,-1.059266736E1,1.569545897E1
1.590119463E1,-9.703618097E0,-5.555699793E0,-1.054456231E1,1.536924848E1
1.591118462E1,-9.042907287E0,-5.446349258E0,-9.826168721E0,1.442187520E1
1.592117362E1,-8.508754781E0,-5.432433470E0,-8.980326292E0,1.351134714E1
1.593116363E1,-8.080949680E0,-5.411692811E0,-8.216099884E0,1.273155388E1
1.594115592E1,-7.586188697E0,-5.345460230E0,-7.457452304E0,1.190536849E1
1.595114492E1,-6.930214716E0,-5.292856924E0,-6.714585190E0,1.100581050E1
1.596113492E1,-6.327182010E0,-5.342684557E0,-6.134402819E0,1.030574638E1
1.597112492E1,-5.954527847E0,-5.353280296E0,-5.681369905E0,9.817941526E0
1.598111392E1,-5.801381668E0,-5.409436955E0,-5.379213282E0,9.584047838E0
1.599110392E1,-5.708830769E0,-5.474766726E0,-5.283154054E0,9.511862921E0
1.600109292E1,-5.636162742E0,-5.619934380E0,-5.274999527E0,9.548592195E0
1.601108292E1,-5.607981502E0,-5.698675325E0,-5.419528080E0,9.658966901E0
1.602107292E1,-5.652759479E0,-5.810133196E0,-5.582178324E0,9.842360099E0
1.603106192E1,-5.557108971E0,-6.020749903E0,-5.639557636E0,9.946632588E0
1.604105192E1,-5.523893278E0,-6.199905083E0,-5.634796833E0,1.003509618E1
1.605104192E1,-5.925292354E0,-6.325732486E0,-5.646833911E0,1.034459831E1
1.606103092E1,-6.648570710E0,-6.504637404E0,-5.794595389E0,1.095861013E1
1.607102092E1,-7.415555835E0,-6.758639283E0,-5.915502360E0,1.164743927E1
1.608101092E1,-7.905890476E0,-6.909169418E0,-5.861268851E0,1.202473279E1
1.609099992E1,-8.096214421E0,-6.984588559E0,-5.848016721E0,1.218738958E1
1.610098992E1,-8.162432969E0,-6.905902578E0,-5.767053834E0,1.214807443E1
1.611097992E1,-7.979022186E0,-6.690687620E0,-5.716083655E0,1.187870819E1
1.612096892E1,-7.453246987E0,-6.388059711E0,-5.573589349E0,1.128818390E1
1.613095892E1,-6.836141787E0,-6.163497394E0,-5.374816761E0,1.065880809E1
1.614094892E1,-6.289787897E0,-5.786106986E0,-4.971365898E0,9.887110029E0
1.615093792E1,-5.719519479E0,-5.274459245E0,-4.566501178E0,9.021405456E0
1.616092792E1,-5.173380767E0,-4.707360895E0,-4.285855876E0,8.203150355E0
1.617091792E1,-4.514137022E0,-4.072254750E0,-3.993547719E0,7.273865216E0
1.618090692E1,-3.979310918E0,-3.278131820E0,-3.838204156E0,6.427509218E0
1.619089692E1,-3.099786773E0,-2.220511427E0,-3.473108103E0,5.157696087E0
1.620088692E1,-1.753651895E0,-9.632150504E-1,-2.691366946E0,3.353585281E0
1.621087592E1,-5.789421773E-1,5.322454360E-1,-1.673622808E0,1.849181590E0
1.622086592E1,7.726990235E-1,2.053651480E0,-2.120060062E-1,2.204426168E0
1.623085592E1,2.390316616E0,3.811860403E0,1.741099677E0,4.824450366E0
1.624084492E1,4.434175179E0,5.790405275E0,4.096223071E0,8.364792060E0
1.625083492E1,7.460494611E0,7.324898264E0,6.264631421E0,1.218846673E1
1.626082492E1,1.044827972E1,8.985750754E0,7.943768739E0,1.590640524E1
1.627081392E1,1.255855622E1,1.090120855E1,1.004679352E1,1.942914672E1
1.628080392E1,1.344546891E1,1.169406644E1,1.233631642E1,2.167294458E1
1.629079292E1,1.260026792E1,1.131635502E1,1.409420345E1,2.203345669E1
1.630078292E1,1.073252223E1,1.041580195E1,1.481920791E1,2.105433178E1
1.631077292E1,8.884992703E0,9.239985352E0,1.407371013E1,1.903653701E1
1.632076192E1,7.566356696E0,8.167161613E0,1.237346378E1,1.664496586E1
1.633075192E1,6.744181457E0,7.331948837E0,1.022345077E1,1.427446682E1
1.634074192E1,6.143558389E0,6.963167285E0,7.934198601E0,1.221394759E1
1.635073092E1,5.512525706E0,6.738563452E0,6.057605488E0,1.060616619E1
1.636072092E1,4.893219030E0,6.558682049E0,4.677994131E0,9.425684685E0
1.637071092E1,4.467468640E0,6.649508604E0,3.845102116E0,8.885890558E0
1.638069992E1,4.145178884E0,6.810809895E0,3.660317822E0,8.773116092E0
1.639068992E1,4.108987543E0,6.968269565E0,4.174192768E0,9.102990972E0
1.640067992E1,4.144766656E0,7.031989013E0,4.943940117E0,9.543086712E0
1.641066892E1,4.260306467E0,7.217591332E0,5.675099351E0,1.012178781E1
1.642065892E1,5.029104229E0,7.354116801E0,6.766958116E0,1.118779001E1
1.643064892E1,5.717695148E0,7.801224146E0,8.082485744E0,1.260467024E1
1.644063792E1,6.256276919E0,8.089067954E0,9.571795544E0,1.400690156E1
1.645062792E1,7.322214392E0,8.286762900E0,1.110481328E1,1.567169873E1
1.646061792E1,8.507880623E0,8.634005649E0,1.224809948E1,1.723212195E1
1.647060692E1,9.370177116E0,8.574491519E0,1.267692843E1,1.794510068E1
1.648059692E1,9.139033173E0,8.113235081E0,1.181625220E1,1.699912724E1
1.649058692E1,8.000230622E0,7.340850638E0,9.931100514E0,1.471456882E1
1.650057592E1,6.953446289E0,6.522438083E0,7.799172943E0,1.231745560E1
1.651056592E1,5.865926743E0,5.981130340E0,5.798783750E0,1.018866575E1
1.652055592E1,5.382042750E0,5.719886684E0,4.313747680E0,8.960575143E0
1.653054492E1,5.453482277E0,5.669252720E0,3.346099563E0,8.548524881E0
1.654053492E1,5.625339546E0,5.741683935E0,3.241887562E0,8.667249528E0
1.655052492E1,5.742027166E0,5.898132037E0,4.012851132E0,9.157609498E0
1.656051392E1,6.100562058E0,5.917382240E0,5.204025439E0,9.965648537E0
1.657050392E1,6.403301648E0,5.757248054E0,6.381079890E0,1.071757238E1
