"Time (s)","Linear Acceleration x (m/s^2)","Linear Acceleration y (m/s^2)","Linear Acceleration z (m/s^2)","Absolute acceleration (m/s^2)"
5.917666667E-3,-1.069280326E-1,-1.322429681E-1,7.970865905E-2,1.878171374E-1
1.590666667E-2,-2.479553459E-1,-1.922506034E-2,-1.443619072E-1,2.875618486E-1
2.589666667E-2,-4.034329563E-1,-1.909612924E-2,-3.789299798E-1,5.538147181E-1
3.588666667E-2,-4.495167632E-1,-6.444625676E-2,-4.489445400E-1,6.385685871E-1
4.587666667E-2,-3.966094018E-1,-9.037134916E-2,-2.530856198E-1,4.790807127E-1
5.586666667E-2,-1.530526970E-1,-5.664110094E-2,-2.095057368E-2,1.645365276E-1
6.585666667E-2,8.559300452E-3,-3.390537232E-2,1.245971489E-1,1.294113033E-1
7.584666667E-2,6.474183351E-3,-5.744889379E-2,1.767519736E-1,1.859665309E-1
8.583666667E-2,-4.644662663E-2,-1.113137367E-1,-2.696092665E-2,1.235917824E-1
9.582566667E-2,-2.127722839E-1,-1.558461311E-1,-2.898131508E-1,3.918567643E-1
1.058156667E-1,-5.889159192E-1,-1.187443784E-1,-5.071524024E-1,7.862097345E-1
1.158056667E-1,-1.087692916E0,5.783744127E-2,-7.227035755E-1,1.307180748E0
1.257956667E-1,-1.634235087E0,3.037166601E-1,-6.555348551E-1,1.786811147E0
1.357856667E-1,-1.802486378E0,4.829285574E-1,-4.093202984E-1,1.910424100E0
1.457756667E-1,-1.575942440E0,1.883861786E-1,-2.590550423E-2,1.587373624E0
1.557656667E-1,-1.316344191E0,-2.034983075E-1,5.118781221E-1,1.426952278E0
1.657556667E-1,-7.266494228E-1,-4.586994499E-2,6.077818143E-1,9.484314257E-1
1.757446667E-1,-1.768629245E-1,-1.665941906E-1,1.705621696E0,1.722840529E0
1.857346667E-1,9.697329417E-2,-3.605705997E-1,1.577465347E0,1.621052713E0
1.957246667E-1,3.798614413E-2,-3.973308751E-1,9.705395651E-1,1.049410224E0
2.057146667E-1,-1.803347088E-1,-1.579663315E-1,6.767479688E-1,7.179566717E-1
2.157046667E-1,-6.237586002E-1,3.710862324E-1,3.397524655E-2,7.265907380E-1
2.256946667E-1,-7.440504442E-1,3.918689910E-1,-1.087547613E0,1.374748042E0
2.356846667E-1,2.169205910E-1,2.617076316E-1,-1.240840557E0,1.286557700E0
2.456736667E-1,4.472317444E-1,5.100368339E-1,-1.367356762E0,1.526374240E0
2.556636667E-1,9.969917840E-1,7.380718124E-1,-2.265037097E0,2.582466973E0
2.656536667E-1,1.197886765E0,1.396607459E-2,-2.354104809E0,2.641389257E0
2.756436667E-1,5.601585817E-1,-1.044212143E0,-1.469349160E0,1.887629093E0
2.856336667E-1,-4.234386930E-1,-1.610704722E0,-2.119247299E-1,1.678863341E0
2.956236667E-1,-7.510432756E-1,-1.218301587E0,5.947512943E-1,1.549856078E0
3.056136667E-1,-6.159749329E-1,-3.409107989E-1,1.262881637E-1,7.152579892E-1
3.156026667E-1,-2.322689474E-1,-2.824439049E-2,-9.609273273E-1,9.890035075E-1
3.255926667E-1,1.274134603E-1,-1.870419037E-1,-1.894766843E0,1.908234853E0
3.355826667E-1,7.161546940E-1,-5.347186621E-1,-6.783618003E-1,1.122041142E0
3.455726667E-1,-3.348408043E-3,-6.243545777E-1,3.083909243E-1,6.963726105E-1
3.555626667E-1,-1.228068192E0,-1.531992428E-1,3.151725250E-1,1.277088569E0
3.655526667E-1,-1.339599737E0,6.012671390E-1,2.613974369E-1,1.491434963E0
3.755426667E-1,-1.576419280E0,-9.438765541E-2,-3.765735519E-1,1.623519146E0
3.855326667E-1,-2.282013903E0,-1.242955057E0,-8.923003113E-1,2.747494235E0
3.955216667E-1,-2.487153524E0,-8.268410245E-1,-6.546893477E-1,2.701521214E0
4.055116667E-1,-2.459713710E0,-9.254958317E-2,-5.794415295E-1,2.528736729E0
4.155016667E-1,-2.097623127E0,-4.466997939E-1,4.143453956E-2,2.145059511E0
4.254916667E-1,-2.072101784E0,-5.665166979E-1,8.600166643E-1,2.313909168E0
4.354816667E-1,-2.517839711E0,-6.658613303E-1,6.004581767E-1,2.672721112E0
4.454716667E-1,-3.477348504E0,-1.910368384E0,-5.203676945E-1,4.001530022E0
4.554616667E-1,-3.258669655E0,-3.333687970E0,-1.535424451E0,4.908149514E0
4.654506667E-1,-1.681621799E0,-3.089787157E0,-1.685223100E0,3.900591423E0
4.754406667E-1,-1.211076475E0,-1.901727661E0,-4.915882838E-1,2.307581714E0
4.854306667E-1,-9.649566436E-1,-1.167192464E0,1.066425716E0,1.852226600E0
4.954206667E-1,3.478210384E-1,-1.758415475E0,1.187653699E0,2.150238537E0
5.054106667E-1,8.877418220E-1,-2.541703660E0,4.682625711E-2,2.692681886E0
5.154006667E-1,1.334411210E0,-2.494012015E0,-5.720594198E-1,2.885827644E0
5.253906667E-1,1.118422081E0,-2.271820305E0,-2.004919615E0,3.229820137E0
5.353806667E-1,7.088386577E-1,-2.318517485E0,-2.765885031E0,3.678055951E0
5.453696667E-1,1.024743839E0,-2.249139394E0,-3.133746232E0,3.991126833E0
5.553596667E-1,1.082340667E0,-2.155770324E0,-3.230158632E0,4.031467698E0
5.653496667E-1,1.047535116E0,-1.688875855E0,-3.501618542E0,4.026284129E0
5.753396667E-1,8.697090089E-1,-1.767854051E0,-4.068493236E0,4.520435700E0
5.853296667E-1,8.607873273E-1,-2.447723702E0,-4.181851451E0,4.921400990E0
5.953196667E-1,6.340919459E-1,-3.028787834E0,-3.506413844E0,4.676597736E0
6.053100833E-1,3.830551904E-1,-3.315629722E0,-2.908539551E0,4.427158689E0
6.152990833E-1,6.783425045E-1,-3.757697352E0,-2.480269012E0,4.553259526E0
6.252890833E-1,1.055539954E0,-4.291783199E0,-2.237709550E0,4.953878445E0
6.352790833E-1,5.537979805E-1,-4.340164815E0,-2.161487585E0,4.880138462E0
6.452690833E-1,1.668853819E-2,-4.473966651E0,-2.045232074E0,4.919311978E0
6.552590833E-1,1.961670685E-1,-4.489574039E0,-2.212392860E0,5.008935889E0
6.652490833E-1,9.523956549E-1,-4.261315697E0,-2.619581848E0,5.091962098E0
6.752390833E-1,2.179598751E0,-2.950957008E0,-3.056041998E0,4.774745090E0
6.852290833E-1,3.465496198E0,-3.424933771E0,-3.603584043E0,6.060169402E0
6.952180833E-1,4.637181151E0,-5.052001340E0,-2.343091578E0,7.246809278E0
7.052080833E-1,5.809803413E0,-1.989965654E0,6.892522395E-1,6.179712586E0
7.151980833E-1,6.509632096E0,-7.033133313E-1,1.213946874E0,6.659101041E0
7.251880833E-1,6.787630363E0,-1.643821012E0,2.328047570E0,7.361649200E0
7.351780833E-1,5.673280867E0,-9.187130615E-1,2.328522364E0,6.200981042E0
7.451680833E-1,5.589998390E0,-6.560204664E-1,1.703464658E0,5.880496297E0
7.551580833E-1,5.732363473E0,-4.381029251E-1,1.102194011E0,5.853781410E0
7.651470833E-1,5.723392090E0,-1.322324431E-1,5.388653612E-1,5.750224197E0
7.751370833E-1,6.361011077E0,6.576328361E-1,8.690892041E-2,6.395505924E0
7.851270833E-1,6.986469609E0,1.126414640E0,-8.564831918E-1,7.128332974E0
7.951170833E-1,7.074010613E0,1.865596254E0,-1.337839433E0,7.437196373E0
8.051070833E-1,7.085071206E0,2.423540203E0,-1.377744926E0,7.613800772E0
8.150970833E-1,6.468982837E0,2.538276315E0,-1.137463246E0,7.041619717E0
8.250870833E-1,4.597675608E0,1.537859817E0,-1.358706099E0,5.034850154E0
8.350770833E-1,2.289503601E0,7.169616097E-1,-1.015101780E0,2.605051307E0
8.450660833E-1,2.279841077E-1,2.353323036E-1,-6.624237522E-1,7.390286017E-1
8.550560833E-1,-1.498373569E0,-1.197976373E0,-3.265047213E-1,1.945989742E0
8.650460833E-1,-3.756304545E0,-1.974728102E0,6.635303378E-1,4.295305277E0
8.750360833E-1,-5.172358673E0,-2.425878797E0,2.494922134E0,6.234005024E0
8.850260833E-1,-5.332900996E0,-1.347451086E0,3.282269602E0,6.405368936E0
8.950160833E-1,-4.472242307E0,-1.023348109E0,2.448057870E0,5.200113455E0
9.050060833E-1,-4.298389968E0,-3.827406102E-1,2.584463764E0,5.030119246E0
9.149950833E-1,-4.279553162E0,3.089323765E-1,2.190802016E0,4.817637176E0
9.249850833E-1,-4.041801281E0,4.907620722E-1,2.400080004E0,4.726244707E0
9.349750833E-1,-4.076802129E0,1.069063395E0,2.893812754E0,5.112471457E0
9.449650833E-1,-4.269738611E0,1.388944682E0,2.953581531E0,5.374335214E0
9.549550833E-1,-4.207631240E0,1.457814358E0,3.072746324E0,5.410282186E0
9.649450833E-1,-3.634178429E0,1.827815639E0,3.287922691E0,5.230544760E0
9.749350833E-1,-2.948124617E0,2.216887615E0,3.119588076E0,4.830927366E0
9.849250833E-1,-2.345973086E0,2.310258293E0,2.757251033E0,4.294568239E0
9.949140833E-1,-1.540180576E0,2.633935593E0,2.621832734E0,4.022906885E0
1.004904083E0,-8.343602514E-1,3.041543242E0,2.498238090E0,4.023473112E0
1.014894083E0,-3.261647058E-1,2.840482054E0,2.483914751E0,3.787420521E0
1.024884083E0,1.308893377E-1,2.528716702E0,2.647951369E0,3.663766727E0
1.034874083E0,1.347428282E0,2.639923142E0,2.729645158E0,4.029357252E0
1.044864083E0,2.870438802E0,3.022940910E0,2.731735538E0,4.983971279E0
1.054854083E0,4.512651830E0,3.376151912E0,2.304909260E0,6.088927243E0
1.064843083E0,5.765326567E0,3.665892558E0,1.342114332E0,6.962688385E0
1.074833083E0,6.566665252E0,4.166749263E0,3.978837293E-1,7.787246203E0
1.084823083E0,6.893750310E0,3.945667793E0,-4.572594269E-1,7.956203482E0
1.094813083E0,6.747914320E0,3.314877770E0,-6.557821923E-1,7.546708725E0
1.104803083E0,6.719823711E0,2.597231451E0,-4.046992439E-1,7.215637421E0
1.114793083E0,6.446968070E0,2.392593521E0,-5.181638789E-1,6.896114476E0
1.124783083E0,6.131125454E0,2.386140534E0,-4.063206768E-1,6.591620626E0
1.134773083E0,5.897299393E0,1.855309247E0,-3.831481612E-1,6.194119393E0
1.144762083E0,5.599159808E0,1.541699098E0,-4.278875470E-2,5.807689518E0
1.154752083E0,5.631200795E0,1.653670354E0,2.910643087E-1,5.876203406E0
1.164742083E0,5.491677459E0,1.854742652E0,3.554013687E-1,5.807314504E0
1.174732083E0,5.016785315E0,1.823168272E0,4.057609521E-2,5.337951280E0
1.184722083E0,4.335167492E0,1.565304308E0,-7.374468912E-1,4.667727786E0
1.194712083E0,3.520202163E0,1.069758629E0,-1.720588814E0,4.061604690E0
1.204702083E0,2.846617245E0,8.338264006E-1,-1.872607065E0,3.507870213E0
1.214691083E0,1.924641438E0,4.390837955E-1,-1.347926465E0,2.390385951E0
1.224681083E0,1.051032336E0,-1.049345999E0,-2.400147539E-1,1.504461059E0
1.234671083E0,1.136160194E0,-4.510459124E0,-1.721671718E-1,4.654540045E0
1.244661083E0,-1.633930739E0,-1.035607381E0,2.320280238E-1,1.948345275E0
1.254651083E0,-5.196342782E0,3.207490146E-1,-1.119419616E0,5.325219105E0
1.264641083E0,-4.604855989E0,-2.168375021E0,-2.207315138E0,5.547863465E0
1.274631083E0,-1.797093784E0,-1.923769618E0,-2.540599414E0,3.658562694E0
1.284621083E0,4.995293874E-1,-5.314008057E-1,-2.495992759E0,2.600364644E0
1.294610083E0,3.326635936E0,1.000607702E0,-2.287143080E0,4.159176107E0
1.304600083E0,1.455043947E0,-1.860356564E0,-1.901211644E0,3.031944120E0
1.314590083E0,-3.487589318E-1,-3.574542092E0,-1.019207110E0,3.733331903E0
1.324580083E0,1.744472351E0,-2.083674009E0,9.164247537E-1,2.867876477E0
1.334570083E0,1.543212942E0,-2.071527588E0,2.229852061E0,3.412473142E0
1.344560083E0,-1.170091002E0,-2.937523030E0,3.251737196E0,4.535631081E0
1.354550083E0,-3.396434734E0,-3.639356139E0,2.947066855E0,5.784970618E0
1.364540083E0,-2.283473368E0,-2.434861874E0,1.665710356E0,3.730602358E0
1.374529083E0,3.658515126E-1,-2.401975964E0,2.411180870E-1,2.441612949E0
1.384519083E0,1.191936200E0,-2.104857886E0,-1.937810537E0,3.099394828E0
1.394509083E0,9.711207783E-1,-1.908837583E0,-2.454312637E0,3.257358900E0
1.404499083E0,2.847950703E-1,-2.396403567E0,-1.858850906E0,3.046175468E0
1.414489083E0,-8.870711464E-1,-3.395282832E0,-8.058620918E-1,3.600590846E0
1.424479083E0,-4.165492111E-1,-3.238883847E0,6.463512182E-1,3.328911491E0
1.434469083E0,-2.669686639E-1,-2.572390725E0,1.344122266E0,2.914640797E0
1.444459083E0,-3.724097496E-1,-1.531641303E0,2.157475226E0,2.671949373E0
1.454448083E0,1.339259137E0,-1.008234226E0,2.229101279E0,2.789093724E0
1.464438083E0,1.396520335E0,-2.196974337E-1,9.121749973E-1,1.682438479E0
1.474428083E0,3.929224253E0,8.749826127E-1,-7.476267475E-1,4.094306237E0
1.484418083E0,2.181612532E0,1.610303895E0,-1.281132551E0,2.998968571E0
1.494408083E0,-3.341275025E0,2.984717077E-1,6.373063065E-2,3.355184905E0
1.504398083E0,-4.710869517E0,-1.269711769E0,1.287344633E0,5.045960343E0
1.514388083E0,-5.250869238E0,-1.968768620E0,1.805098037E0,5.891184648E0
1.524377083E0,-5.894433673E0,-2.078347780E0,1.738888260E0,6.487496451E0
1.534367083E0,-5.632888302E0,-1.534018196E0,6.016333940E-1,5.868952648E0
1.544357083E0,-5.126630523E0,-1.201372436E0,-8.577783501E-1,5.334924550E0
1.554347083E0,-3.881170666E0,-6.629760218E-1,-1.556867360E0,4.234012154E0
1.564337083E0,-2.632766735E0,-1.450875467E-1,-2.311483285E0,3.506489135E0
1.574327083E0,-2.280859078E0,1.431211281E-1,-2.613134708E0,3.471494605E0
1.584317083E0,-2.306175182E0,1.110994363E-1,-2.178073797E0,3.174081367E0
1.594307083E0,-2.653395712E0,-1.847345924E-1,-1.062371841E0,2.864135053E0
1.604296208E0,-2.567898894E0,-2.280911118E-1,-1.545941692E-2,2.578055329E0
1.614286208E0,-1.687310556E0,-5.513608611E-1,8.675958252E-1,1.975788001E0
1.624276208E0,-1.883893946E0,-1.955741608E-1,1.493038570E0,2.411735852E0
1.634266208E0,-1.391108737E0,-3.088557780E-1,8.329534113E-1,1.650571657E0
1.644256208E0,-1.536609097E0,1.191811069E0,1.750583276E0,2.616509688E0
1.654246208E0,1.084463207E0,1.685757535E0,1.999012758E0,2.830881651E0
1.664236208E0,6.078393509E0,2.190299740E0,1.240544688E0,6.578999296E0
1.674225208E0,9.509267174E0,2.578544335E0,-3.814682927E-1,9.860049246E0
1.684215208E0,1.152602448E1,3.638048117E0,-1.465089464E0,1.217502039E1
1.694205208E0,1.071494550E1,5.306481521E0,-1.276838356E0,1.202493740E1
1.704195208E0,6.540258057E0,4.545558790E0,-2.427988472E0,8.326596435E0
1.714185208E0,5.574474033E0,2.059113364E0,-3.343679985E0,6.818717213E0
1.724175208E0,6.240278937E0,1.113947207E0,-3.768976046E0,7.374763727E0
1.734165208E0,5.524511914E0,-2.660851496E-1,-3.736651468E0,6.674848117E0
1.744155208E0,4.469971249E0,-2.496410251E-1,-2.644289258E0,5.199541257E0
1.754144208E0,3.635236775E0,8.195621181E-1,-1.369175831E0,3.970046717E0
1.764134208E0,2.997567503E0,4.832378751E-1,-3.786991610E-1,3.059794574E0
1.774124208E0,1.098153293E0,-8.962518597E-1,1.168424253E0,1.836960339E0
1.784114208E0,-1.867146935E0,-6.545174396E-1,1.899419765E0,2.742704177E0
1.794104208E0,-5.486561730E0,-1.330458200E0,1.851459441E0,5.941412349E0
1.804094208E0,-8.090395272E0,-1.383220843E0,2.710971198E0,8.643908861E0
1.814084208E0,-7.809337742E0,-1.109811763E0,3.368157599E0,8.576824805E0
1.824074208E0,-5.928618250E0,-1.278483177E0,3.201025757E0,6.857813025E0
1.834063208E0,-3.383183189E0,-1.176041421E0,2.681943573E0,4.474575202E0
1.844053208E0,-3.508172101E0,-2.976154999E0,5.759796855E-1,4.636434262E0
1.854043208E0,-3.485565596E0,-4.874194821E0,-3.179693068E0,6.783611920E0
1.864033208E0,-3.125932598E0,-6.407259629E0,-5.434903334E0,8.964519218E0
1.874023208E0,-4.610648825E0,-6.236497543E0,-4.841982510E0,9.143127409E0
1.884013208E0,-4.747245630E0,-3.224896430E0,-2.347131127E0,6.200429226E0
1.894003208E0,-2.335999491E0,-2.229086368E0,-6.436930740E-1,3.292424704E0
1.903992208E0,-2.836911160E-1,-3.257262523E0,2.338324928E-1,3.277944085E0
1.913982208E0,-1.450483704E-1,-2.754458987E0,-4.078812987E-1,2.788270162E0
1.923972208E0,1.974949712E-1,-1.221531589E0,-1.029913362E0,1.609927086E0
1.933962208E0,2.746121442E-1,-1.581838480E-1,-1.736088613E0,1.764776936E0
1.943952208E0,-1.985088784E-1,-3.051112211E-1,-1.771512507E0,1.808522932E0
1.953942208E0,-6.293147707E-1,-1.908560425E-2,-1.837895654E0,1.942745937E0
1.963932208E0,-1.347520083E-1,1.125029727E0,-2.320693819E0,2.582531663E0
1.973922208E0,9.272228068E-1,1.845986154E0,-3.179736337E0,3.791850497E0
1.983911208E0,1.463177424E0,2.183391840E0,-3.693586140E0,4.533284315E0
1.993901208E0,1.142533075E0,2.232329234E0,-2.257287197E0,3.374021507E0
2.003891208E0,6.731799978E-1,2.268007482E0,-2.546228528E-1,2.379466757E0
2.013881208E0,6.537631488E-1,1.024006213E0,2.248909891E0,2.556088942E0
2.023871208E0,1.045517242E-1,-6.979996741E-2,3.596306013E0,3.598502472E0
2.033861208E0,-8.724305955E-1,5.521484810E-1,2.798750476E0,2.983120399E0
2.043851208E0,-3.769199994E-1,9.302662826E-1,1.853831071E0,2.108116146E0
2.053841208E0,-1.372590020E-1,4.945539916E-1,1.146490470E0,1.256130599E0
2.063831208E0,-5.756583810E-4,9.407421541E-1,3.413955331E-2,9.413615889E-1
2.073820208E0,-3.941695780E-2,-4.603694147E-1,-4.390089512E-2,4.641346606E-1
2.083810208E0,-3.186485486E-1,-1.558253735E0,-1.770662030E0,2.380112524E0
2.093800208E0,-1.118665910E-1,-1.015470740E0,-2.293218337E0,2.510487064E0
2.103790208E0,4.976862353E-1,-4.231238204E-1,-8.273669815E-1,1.054163876E0
2.113780208E0,4.614120829E-1,-9.948745072E-2,1.650969526E0,1.717119459E0
2.123770208E0,-7.025334589E-2,8.703071791E-1,2.684454367E0,2.822882457E0
2.133760208E0,-8.605823824E-1,1.297604742E0,2.716569614E0,3.131154831E0
2.143750208E0,-2.581458295E0,2.262297091E0,3.145377513E0,4.655675543E0
2.153739208E0,-5.413825876E0,2.828422757E0,2.648375292E0,6.657580461E0
2.163729208E0,-6.049288993E0,3.450445465E0,5.463628365E0,8.851593424E0
2.173719208E0,-4.745790550E0,3.596327648E0,9.543281012E0,1.124856937E1
2.183709208E0,-4.026922456E0,-5.748187208E-1,8.201261405E0,9.154627773E0
2.193699208E0,-1.812108264E0,-8.411605632E-1,5.791998056E0,6.126869424E0
2.203689208E0,1.316883597E-1,2.693760211E0,2.762689528E0,3.860846970E0
2.213679208E0,1.947971828E0,2.002668437E0,-1.197144315E-1,2.796355960E0
2.223668208E0,2.831459216E0,1.546791438E0,-1.998355239E0,3.795148048E0
2.233658208E0,2.696713639E0,1.699956329E0,-3.272581936E0,4.568578389E0
2.243648208E0,2.013698333E0,1.331452519E0,-4.059954547E0,4.723449768E0
2.253638208E0,1.702053433E0,1.593996595E0,-4.656895623E0,5.208117499E0
2.263628208E0,1.256452038E0,1.924470699E0,-5.207345488E0,5.691986141E0
2.273618208E0,4.105151770E-1,2.088792661E0,-5.435002736E0,5.837022549E0
2.283608208E0,1.263715450E0,3.150116681E0,-2.085479921E0,3.983646363E0
2.293598208E0,4.147984671E0,2.623525211E0,7.819399046E0,9.232099588E0
2.303587208E0,3.661134970E0,9.838893431E-1,6.917559587E0,7.888255711E0
2.313577208E0,4.159487606E0,-1.501958497E0,2.895459038E0,5.285915201E0
2.323567208E0,5.133537254E0,-2.333710890E0,1.132452182E0,5.751683163E0
2.333557208E0,4.575172306E0,-2.727051333E0,-5.267845751E-1,5.352243697E0
2.343547208E0,3.611445624E0,-3.353239013E0,-6.183757997E-1,4.966803802E0
2.353537208E0,2.560906501E0,-4.182988735E0,5.126562403E-1,4.931374381E0
2.363527208E0,7.260832661E-1,-6.352915022E0,1.803007365E0,6.643610595E0
2.373516208E0,-3.407540935E-1,-6.899917368E0,1.284194445E0,7.026672642E0
2.383506208E0,-8.644491461E-1,-5.427787272E0,4.103268966E-1,5.511489378E0
2.393496208E0,-1.100978667E0,-3.575809768E0,-1.956671315E-1,3.746579127E0
2.403486208E0,-2.041081428E0,-1.421810712E0,-2.121182728E0,3.269093951E0
2.413476208E0,-5.089857969E-1,1.933588847E0,-6.469192752E0,6.771136333E0
2.423466208E0,1.533089366E0,3.942980413E0,-7.257177567E0,8.400243078E0
2.433456208E0,2.038321542E0,3.446453571E0,-5.552783201E0,6.845889147E0
2.443446208E0,2.952237841E0,1.656212139E0,-3.275442978E0,4.710336890E0
2.453435208E0,8.241919434E-1,-3.825259005E0,1.615575452E0,4.233436294E0
2.463425208E0,-2.834076430E0,-8.695856327E0,4.282238496E0,1.009888474E1
2.473415208E0,-5.579226065E0,-4.399326943E0,2.173881051E0,7.430181684E0
2.483405208E0,-6.963030460E0,5.151454293E0,-1.983733107E0,8.885745413E0
2.493395208E0,-9.052563379E0,8.186916431E0,-1.176466806E0,1.226207888E1
2.503385208E0,-8.432142223E0,5.746152377E0,1.348786590E0,1.029264373E1
2.513375208E0,-4.757584677E0,1.493695797E0,3.236922399E0,5.945032019E0
2.523364208E0,-4.987388438E-1,1.387312725E0,4.076315641E0,4.334711782E0
2.533354208E0,1.365641482E0,4.208162168E0,6.691695680E0,8.021994550E0
2.543344208E0,1.465235644E0,4.258030731E0,5.684841397E0,7.252252265E0
2.553334208E0,1.509095901E0,3.762383310E0,-7.477489543E-1,4.122138657E0
2.563324208E0,1.361176548E0,2.938403621E0,-2.134690527E0,3.878649388E0
2.573314208E0,4.379486683E-1,2.274732365E0,-5.134393287E-1,2.372725503E0
2.583304208E0,2.257870530E-1,2.512591835E0,2.028410804E-1,2.530857963E0
2.593294208E0,6.739102419E-2,2.633411683E0,1.478152728E-1,2.638417707E0
2.603285917E0,-4.177268404E-1,1.941252792E0,-1.165751783E0,2.302593177E0
2.613275917E0,-8.212084016E-1,1.555696163E0,-1.253169558E0,2.159862896E0
2.623265917E0,-8.718972563E-1,1.529006547E0,-9.912466022E-1,2.020058334E0
2.633255917E0,-1.856914162E-1,2.767390689E0,-8.260839562E-1,2.894019218E0
2.643245917E0,2.089272279E-1,3.266464579E0,-1.007478765E0,3.424683181E0
2.653235917E0,5.015327896E-1,2.787784608E0,-5.431243269E-1,2.884139767E0
2.663225917E0,9.160538209E-1,1.967288690E0,-1.316002129E-1,2.174097056E0
2.673215917E0,1.379154105E0,1.010729817E0,-2.694192320E-1,1.730961447E0
2.683204917E0,1.860879451E0,-4.041846889E-1,-3.842012447E-1,1.942639491E0
2.693194917E0,2.101643087E0,-2.446700732E0,-2.193565410E-1,3.232857162E0
2.703184917E0,1.737121962E0,-5.284539844E0,-4.541832067E-2,5.562914425E0
2.713174917E0,1.354976453E0,-7.824183238E0,1.572877622E-1,7.942200197E0
2.723164917E0,7.950814341E-1,-1.024996556E1,5.667896166E-2,1.028091245E1
2.733154917E0,-1.421326197E-1,-1.157119656E1,1.765620853E-1,1.157341633E1
2.743144917E0,-1.016566508E0,-1.111666442E1,1.917470851E-1,1.116469445E1
2.753133917E0,-1.508710131E0,-7.447397432E0,5.441781414E-1,7.618140496E0
2.763123917E0,-9.662521673E-1,-1.908145857E0,6.873719211E-1,2.246584969E0
2.773113917E0,-2.660365629E-1,1.105364079E0,6.759439766E-2,1.138935557E0
2.783103917E0,3.947285352E-2,2.520925287E0,-5.529127852E-1,2.581149929E0
2.793093917E0,2.497292815E-1,3.053151720E0,-9.709121058E-1,3.213529283E0
2.803083917E0,2.360606840E-1,2.268320308E0,-7.263055334E-1,2.393432973E0
2.813073917E0,1.592381375E-1,8.110941803E-1,-4.720667696E-1,9.518810791E-1
2.823063917E0,3.637431162E-1,1.344923919E-1,-9.185415188E-1,9.970535492E-1
2.833052917E0,5.101814063E-1,3.665625340E-1,-7.357370192E-1,9.674513528E-1
2.843042917E0,1.062560597E-1,5.569367659E-1,8.615193987E-1,1.031350855E0
2.853032917E0,-2.171226671E-1,3.505797547E-1,1.181221689E0,1.251132725E0
2.863022917E0,-2.702993841E-1,2.650484383E-1,3.378281468E-1,5.073857394E-1
2.873012917E0,-2.505090260E-1,4.027041739E-1,-2.010314403E-1,5.151107296E-1
2.883002917E0,-2.217990327E-1,3.167296386E-1,-2.468344346E-1,4.587370848E-1
2.892992917E0,-2.512682686E-1,5.599118292E-2,-4.438694492E-3,2.574693329E-1
2.902981917E0,-3.538590560E-1,-2.478324813E-1,3.388017082E-1,5.490207353E-1
2.912971917E0,-3.852658034E-1,-4.812106454E-1,5.003490208E-1,7.939411610E-1
2.922961917E0,-3.975013945E-1,-6.632017243E-1,5.127658756E-1,9.277783835E-1
2.932951917E0,-3.685441188E-1,-7.042702281E-1,4.617565204E-1,9.192607932E-1
2.942941917E0,-3.024393724E-1,-5.380397344E-1,3.288824916E-1,6.993711626E-1
2.952931917E0,-2.382787522E-1,-3.499541026E-1,1.758677284E-1,4.584474840E-1
2.962921917E0,-1.020654241E-1,-1.721829593E-1,-7.485678568E-3,2.003006682E-1
2.972911917E0,1.843763226E-2,-1.460868359E-2,-1.725560117E-1,1.741520516E-1
2.982900917E0,5.266943453E-3,2.673931718E-2,-2.890437303E-1,2.903256961E-1
2.992890917E0,-1.295869617E-1,-1.561849773E-2,-3.720722191E-1,3.943024909E-1
3.002880917E0,-2.169459533E-1,-2.335167432E-1,-2.540855668E-1,4.076212596E-1
3.012870917E0,-2.803169802E-1,-4.045571566E-1,5.197005272E-3,4.922104338E-1
3.022860917E0,-3.391674881E-1,-4.437861264E-1,2.517336705E-1,6.126585932E-1
3.032850917E0,-2.072961654E-1,-3.386198598E-1,2.372257783E-1,4.625053292E-1
3.042840917E0,-9.297695981E-2,-1.585852593E-1,-5.911403462E-2,1.931022232E-1
3.052830917E0,2.902463061E-3,3.783674777E-2,-1.774624103E-1,1.814743807E-1
3.062819917E0,1.057574840E-1,1.741107863E-1,-1.869593118E-1,2.765013483E-1
3.072809917E0,2.235999203E-1,1.209689516E-1,-1.738960473E-1,3.080101408E-1
3.082799917E0,2.589000545E-1,-2.379407465E-2,-1.434542732E-1,2.969419551E-1
3.092789917E0,2.437884007E-1,-1.588782048E-1,-6.196586788E-2,2.975144317E-1
3.102779917E0,1.796758007E-1,-2.195325422E-1,5.927439451E-2,2.898126711E-1
3.112769917E0,1.123364696E-1,-1.964769709E-1,1.913805377E-1,2.963936449E-1
3.122759917E0,1.106390046E-2,-1.162362152E-1,2.979267472E-1,3.199900222E-1
3.132748917E0,-9.960401131E-2,3.197842240E-2,3.889684796E-1,4.027903384E-1
3.142738917E0,-2.717385666E-1,1.602429450E-1,4.733381005E-1,5.688309128E-1
3.152728917E0,-4.421152114E-1,1.947163743E-1,5.632577522E-1,7.420509565E-1
3.162718917E0,-5.861017274E-1,2.149307835E-1,6.175333621E-1,8.780990433E-1
3.172708917E0,-7.096698394E-1,2.018698579E-1,6.147663134E-1,9.603751042E-1
3.182698917E0,-7.807173103E-1,1.615573990E-1,5.798477648E-1,9.858213541E-1
3.192688917E0,-8.115765025E-1,1.434403861E-1,5.187654112E-1,9.738321805E-1
3.202678917E0,-8.190762144E-1,1.834505439E-1,4.125413834E-1,9.352701963E-1
3.212667917E0,-8.261260562E-1,2.205979049E-1,3.142876951E-1,9.110018944E-1
3.222657917E0,-7.891156662E-1,1.970388883E-1,2.067598844E-1,8.392124331E-1
3.232647917E0,-7.260105414E-1,1.857210177E-1,1.351442103E-1,7.614772224E-1
3.242637917E0,-7.444276627E-1,2.171860546E-1,9.033100337E-2,7.807061019E-1
3.252627917E0,-7.563771057E-1,1.571661401E-1,6.235631570E-2,7.750456966E-1
3.262617917E0,-7.768827794E-1,-7.705753148E-2,1.275112550E-1,7.910397185E-1
3.272607917E0,-8.301210201E-1,-4.157615912E-1,2.668528891E-1,9.660067666E-1
3.282596917E0,-8.196968964E-1,-8.290790462E-1,3.650165302E-1,1.221684138E0
3.292586917E0,-7.578442452E-1,-1.089709328E0,3.019338441E-1,1.361234134E0
3.302576917E0,-6.089916763E-1,-1.209120582E0,1.739815629E-1,1.364958984E0
3.312566917E0,-4.102247165E-1,-1.213641649E0,2.333245160E-1,1.302171532E0
3.322556917E0,-1.251311824E-1,-1.081420900E0,5.148963086E-1,1.204262091E0
3.332546917E0,1.846987782E-1,-8.557189608E-1,1.027292640E0,1.349703207E0
3.342536917E0,4.227028940E-1,-4.923548537E-1,1.592808002E0,1.719921036E0
3.352526917E0,5.215326060E-1,-4.655143797E-2,2.058256309E0,2.123813157E0
3.362515917E0,4.617333508E-1,4.659751403E-1,2.305301608E0,2.396819982E0
3.372505917E0,1.999128679E-1,1.002951851E0,2.358911220E0,2.571058093E0
3.382495917E0,-2.148351084E-1,1.578886220E0,2.387621049E0,2.870499973E0
3.392485917E0,-6.362522728E-1,1.969218856E0,2.571262212E0,3.300610431E0
3.402475917E0,-1.022412408E0,2.078381694E0,2.789548713E0,3.625821234E0
3.412465917E0,-1.270484479E0,1.906734924E0,2.819057856E0,3.632747731E0
3.422455917E0,-1.412373891E0,1.499083421E0,2.583745725E0,3.304208390E0
3.432444917E0,-1.509924159E0,1.055103752E0,2.114590869E0,2.804391099E0
3.442434917E0,-1.583909417E0,7.035498512E-1,1.446428075E0,2.257411263E0
3.452424917E0,-1.540113333E0,6.721181434E-1,3.670142314E-1,1.719997478E0
3.462414917E0,-1.340375663E0,8.415821475E-1,-1.050237114E0,1.899438187E0
3.472404917E0,-9.294646293E-1,1.049233732E0,-2.403279893E0,2.782184423E0
3.482394917E0,-1.973797810E-1,1.188239005E0,-3.426836747E0,3.632365731E0
3.492384917E0,5.038599814E-1,9.978413844E-1,-3.802892820E0,3.963780533E0
3.502374917E0,1.120242027E0,6.335142410E-1,-3.680707063E0,3.899216200E0
3.512363917E0,1.871899552E0,2.825111479E-1,-3.310726539E0,3.813755459E0
3.522353917E0,2.822545428E0,3.616327465E-2,-2.484369664E0,3.760340823E0
3.532343917E0,3.877307118E0,7.442219138E-2,-1.028973276E0,4.012210756E0
3.542333917E0,4.763733901E0,3.259331560E-1,6.461915892E-1,4.818397729E0
3.552323917E0,5.254410896E0,6.695161325E-1,1.882436089E0,5.621445663E0
3.562313917E0,4.789759566E0,1.078454608E0,2.384901802E0,5.458261412E0
3.572303917E0,3.232937813E0,1.470363652E0,1.681442290E0,3.929517063E0
3.582293917E0,1.752297826E0,1.701970110E0,3.774757773E-1,2.471788399E0
3.592282917E0,8.859164675E-1,1.825179130E0,-8.288681079E-1,2.191608812E0
3.602270542E0,7.160476899E-1,1.785142075E0,-1.840768391E0,2.662308170E0
3.612260542E0,1.037583594E0,1.545376412E0,-2.689730895E0,3.270996829E0
3.622250542E0,1.502720389E0,1.126445045E0,-3.094580997E0,3.619872726E0
3.632240542E0,1.681529413E0,6.893849713E-1,-2.713516198E0,3.265878590E0
3.642230542E0,1.590862780E0,7.630791843E-2,-1.596406087E0,2.255034296E0
3.652220542E0,1.399916252E0,-1.199434669E0,-6.534029603E-2,1.844635029E0
3.662209542E0,9.759907781E-1,-2.809633314E0,1.539526273E0,3.349139965E0
3.672199542E0,5.131912605E-1,-4.145539657E0,2.889786946E0,5.079343749E0
3.682189542E0,2.320698497E-1,-4.762532006E0,3.706671039E0,6.039451773E0
3.692179542E0,4.075097081E-1,-4.477424110E0,4.092388467E0,6.079558716E0
3.702169542E0,1.262594246E0,-3.288393391E0,4.098973601E0,5.404559178E0
3.712159542E0,2.122054986E0,-1.986885048E0,3.251434895E0,4.361497270E0
3.722149542E0,2.518130318E0,-9.687813073E-1,1.305782073E0,2.997429623E0
3.732139542E0,2.560029711E0,-6.595717728E-2,-1.016493418E0,2.755242519E0
3.742128542E0,2.325137264E0,6.640074706E-1,-2.505054190E0,3.481733148E0
3.752118542E0,1.971905505E0,8.012655956E-1,-2.702024081E0,3.439676149E0
3.762108542E0,1.478497275E0,5.384928936E-1,-1.789635660E0,2.383007466E0
3.772098542E0,5.884811787E-1,-4.616961479E-2,-1.716251349E-1,6.147332088E-1
3.782088542E0,-5.817704755E-1,-7.461000395E-1,1.168449689E0,1.503461616E0
3.792078542E0,-1.644545921E0,-1.143380336E0,1.641899909E0,2.589919920E0
3.802068542E0,-2.377445725E0,-1.080264906E0,1.162584347E0,2.858465113E0
3.812057542E0,-2.948796754E0,-5.498674822E-1,4.506384053E-1,3.033287246E0
3.822047542E0,-3.285704842E0,-1.344175476E-1,-2.096297709E-1,3.295128074E0
3.832037542E0,-3.339534309E0,1.266495216E-1,-8.510283244E-1,3.448590830E0
3.842027542E0,-3.421238038E0,2.943102443E-1,-1.391845632E0,3.705229075E0
3.852017542E0,-3.348358342E0,3.685359693E-1,-1.940443538E0,3.887498356E0
3.862007542E0,-3.074601061E0,2.228999537E-1,-2.288642891E0,3.839367442E0
3.871997542E0,-2.643002286E0,-1.619029695E-1,-2.294520512E0,3.503783389E0
3.881987542E0,-2.048317211E0,-6.896065807E-1,-1.842132547E0,2.839826219E0
3.891976542E0,-1.391809233E0,-8.367669654E-1,-1.337909015E0,2.104117969E0
3.901966542E0,-7.155103308E-1,-7.118277544E-1,-1.056293076E0,1.460961617E0
3.911956542E0,-1.418727475E-1,-5.635476279E-1,-9.799927586E-1,1.139341745E0
3.921946542E0,3.481917518E-1,-3.640113938E-1,-9.861305809E-1,1.107337037E0
3.931936542E0,5.996886832E-1,-2.714575714E-1,-7.968304825E-1,1.033564003E0
3.941926542E0,5.836958174E-1,-3.378468579E-1,-4.958082193E-1,8.370585983E-1
3.951916542E0,3.712467384E-1,-2.571055806E-1,-3.169225967E-1,5.516949815E-1
3.961906542E0,1.604636773E-2,-8.193527877E-2,-2.206394202E-1,2.359080956E-1
3.971895542E0,1.170906396E-1,3.552709758E-2,-2.722837830E-1,2.985144067E-1
3.981885542E0,4.878628765E-1,6.009066582E-2,-4.113808572E-1,6.409799405E-1
3.991875542E0,6.711122762E-1,4.407981992E-2,-6.263636810E-1,9.190572227E-1
4.001865542E0,8.016730003E-1,9.943482578E-2,-7.579003054E-1,1.107691183E0
4.011855542E0,8.097154069E-1,3.190077138E-1,-7.613706279E-1,1.156326163E0
4.021845542E0,6.950767972E-1,7.575763696E-1,-7.095526028E-1,1.249207191E0
4.031835542E0,4.690846896E-1,1.471764060E0,-6.410226506E-1,1.672435330E0
4.041824542E0,1.448728077E-1,2.232705503E0,-6.020615198E-1,2.316989440E0
4.051814542E0,3.898090169E-2,2.847765931E0,-3.599990709E-1,2.870694975E0
4.061804542E0,-9.522234544E-2,3.495373131E0,1.948812658E-1,3.502096419E0
4.071794542E0,-2.866591626E-1,4.082371017E0,1.225431390E0,4.271956073E0
4.081784542E0,-4.540123218E-1,4.419298108E0,1.985844244E0,4.866199782E0
4.091774542E0,-5.373576567E-1,4.358855440E0,2.157905581E0,4.893355750E0
4.101764542E0,-6.900084306E-1,3.964052609E0,2.306308499E0,4.637767093E0
4.111754542E0,-9.511636466E-1,3.409803808E0,2.420498773E0,4.288389978E0
4.121743542E0,-1.007596587E0,2.865459605E0,1.733466868E0,3.497287093E0
4.131733542E0,-8.567045090E-1,2.714304988E0,4.676426201E-1,2.884455547E0
4.141723542E0,-3.772790185E-1,2.998133513E0,-1.061589922E0,3.202829559E0
4.151713542E0,5.607725394E-1,3.400136021E0,-2.276833123E0,4.130297795E0
4.161703542E0,1.571774252E0,3.788130355E0,-1.657358778E0,4.423487765E0
4.171693542E0,2.485461924E0,4.220763502E0,1.324007844E0,5.073988795E0
4.181683542E0,2.669009824E0,3.836433034E0,4.936391362E0,6.797778427E0
4.191672542E0,2.116143597E0,2.194349522E0,4.702983085E0,5.604577008E0
4.201662542E0,1.460635639E0,5.181580317E-1,-4.546217479E-1,1.615123881E0
4.211652542E0,9.906522328E-1,3.190813887E-1,-4.626114711E0,4.741744626E0
4.221642542E0,4.657631788E-1,9.180496949E-1,-5.256628745E0,5.356481713E0
4.231632542E0,-4.337023106E-1,4.072796202E-1,-1.406948844E0,1.527573053E0
4.241622542E0,-1.477211911E0,-1.978721166E0,4.643594085E0,5.259321107E0
4.251612542E0,-1.621525286E0,-3.701432519E0,4.627106983E0,6.143294391E0
4.261602542E0,-8.562019408E-1,-3.414963976E0,-2.421928418E-1,3.528982586E0
4.271591542E0,3.086990726E-1,-2.034488985E0,-4.774024708E0,5.198629864E0
4.281581542E0,-1.677131723E0,1.074322965E0,3.032370715E0,3.627976406E0
4.291571542E0,-1.437428041E0,-1.671134233E-2,2.110403678E0,2.553484350E0
4.301561542E0,-1.727939934E-1,-1.036627720E0,-1.259195552E0,1.640130553E0
4.311551542E0,9.236419719E-1,-1.441496533E0,-2.137694972E0,2.738752735E0
4.321541542E0,5.274457490E-1,-2.395700147E0,1.637465966E-1,2.458534352E0
4.331531542E0,-1.307507002E0,-4.046323518E0,1.137923715E0,4.401951720E0
4.341521542E0,-3.197657468E0,-5.787407992E0,1.000639277E0,6.687330074E0
4.351510542E0,-5.089062747E0,-7.101603039E0,2.830401747E0,9.183817257E0
4.361500542E0,-6.270702585E0,-8.460219968E0,3.172171209E0,1.099816817E1
4.371490542E0,-6.583150892E0,-1.009247197E1,2.719640280E0,1.235282597E1
4.381480542E0,-5.855374857E0,-1.208503467E1,2.890450898E0,1.373638176E1
4.391470542E0,-4.439599056E0,-1.392097852E1,3.678560550E0,1.506769692E1
4.401460542E0,-2.870663043E0,-1.466904790E1,2.968718510E0,1.523925727E1
4.411450542E0,-1.930705585E0,-1.496909310E1,2.901376128E0,1.536942925E1
4.421440542E0,-2.070007312E0,-1.542033793E1,4.007658219E0,1.606652036E1
4.431429542E0,-2.644876903E0,-1.587532381E1,4.177838507E0,1.662755588E1
4.441419542E0,-3.546596202E0,-1.653114752E1,1.721768197E0,1.699475415E1
4.451409542E0,-4.111704452E0,-1.774343905E1,2.145270333E-3,1.821361434E1
4.461399542E0,-4.866474450E0,-1.958466411E1,5.834556431E-1,2.018866172E1
4.471389542E0,-5.551034884E0,-2.124118498E1,1.078597791E0,2.198102138E1
4.481379542E0,-6.103392695E0,-2.105457460E1,8.058270085E-1,2.193617722E1
4.491369542E0,-6.386188018E0,-1.764587475E1,1.248435506E0,1.880741567E1
4.501358542E0,-5.507389512E0,-1.112861730E1,1.843693753E0,1.255295459E1
4.511348542E0,-3.934892544E0,-5.503368382E0,2.032725465E0,7.064164189E0
4.521338542E0,-2.440968414E0,-1.314248257E0,2.199276386E0,3.538699182E0
4.531328542E0,-1.513726603E0,2.673441721E0,2.424784198E0,3.913851974E0
4.541318542E0,-9.640395078E-1,6.211638690E0,2.239978269E0,6.673179904E0
4.551308542E0,-4.430879688E-1,9.360190072E0,1.655000596E0,9.515698193E0
4.561298542E0,-5.069721620E-1,1.098681062E1,9.748466241E-1,1.104161919E1
4.571288542E0,-7.491071894E-1,1.123535471E1,1.623661859E0,1.137675854E1
4.581277542E0,-8.911049212E-1,1.247347222E1,3.426848441E0,1.296629737E1
4.591267542E0,-1.795227645E0,1.339100093E1,6.307108519E0,1.491044486E1
4.601257417E0,-3.002298485E0,1.153619980E1,6.412959495E0,1.353601683E1
4.611247417E0,-2.700714012E0,9.177876227E0,4.079339236E0,1.040039792E1
4.621237417E0,-1.268375973E0,8.146650749E0,2.748786018E0,8.690944748E0
4.631227417E0,4.670045426E-1,8.822157354E0,1.188464050E0,8.914089994E0
4.641217417E0,3.258546571E-1,1.012544091E1,-1.702614619E0,1.027276163E1
4.651207417E0,-4.291815358E-1,1.014306910E1,-4.543466364E0,1.112246079E1
4.661196417E0,-3.788965045E-1,1.044871242E1,-6.509086550E0,1.231614231E1
4.671186417E0,-3.839781734E-1,1.102652491E1,-8.442562546E0,1.389275182E1
4.681176417E0,-3.483186364E-3,1.177847450E1,-9.357469947E0,1.504309535E1
4.691166417E0,4.396851817E-1,1.238584117E1,-8.078622488E0,1.479413822E1
4.701156417E0,7.534450194E-1,1.226110368E1,-5.486316147E0,1.345369867E1
4.711146417E0,9.520123699E-1,1.151614034E1,-3.658208147E0,1.212065604E1
4.721136417E0,5.346021563E-2,1.132009724E1,-2.221322289E0,1.153610559E1
4.731125417E0,-2.657546358E-1,1.127005910E1,-8.125157847E-1,1.130243512E1
4.741115417E0,7.961044045E-1,1.052658213E1,2.917893635E-1,1.056067491E1
4.751105417E0,1.651829505E0,9.568674885E0,1.096510663E0,9.771919740E0
4.761095417E0,2.215596988E0,8.879563563E0,1.960518783E0,9.359441917E0
4.771085417E0,2.763826227E0,8.485279380E0,2.935418617E0,9.394433672E0
4.781075417E0,3.260913524E0,8.303949037E0,3.429466240E0,9.557738504E0
4.791065417E0,3.602811626E0,8.307165005E0,3.265685729E0,9.625691940E0
4.801055417E0,3.716089734E0,8.279918150E0,2.579543624E0,9.435062946E0
4.811044417E0,3.722349179E0,8.337084623E0,1.431107200E0,9.241803462E0
4.821034417E0,3.692413189E0,8.472205591E0,7.225989103E-3,9.241873995E0
4.831024417E0,3.670086181E0,8.678153881E0,-1.494402140E0,9.540079933E0
4.841014417E0,3.559306295E0,8.913554013E0,-2.348063320E0,9.880966946E0
4.851004417E0,3.418076156E0,9.110511625E0,-2.694608057E0,1.009681035E1
4.860994417E0,3.171833825E0,9.378549160E0,-2.876101538E0,1.030968837E1
4.870984417E0,3.029947629E0,9.595987814E0,-2.938917591E0,1.048335831E1
4.880973417E0,3.016797826E0,9.715995483E0,-2.738054624E0,1.053558639E1
4.890963417E0,3.031085497E0,9.884451427E0,-2.121680180E0,1.055421177E1
4.900953417E0,2.629002590E0,1.000304933E1,-1.191733301E0,1.041119008E1
4.910943417E0,1.626486941E0,9.962787745E0,-3.335595332E-1,1.010019116E1
4.920933417E0,6.630619758E-1,9.925501220E0,2.335730226E-1,9.950365924E0
4.930923417E0,1.468567680E-1,9.975907727E0,1.853144901E-1,9.978709504E0
4.940913417E0,-3.344505027E-2,9.750012830E0,1.396607459E-2,9.750080195E0
4.950903417E0,-2.310679293E-1,9.056894411E0,1.745730087E-2,9.059858361E0
4.960892417E0,-2.192849126E-1,8.354737367E0,-3.752205062E-1,8.366033276E0
4.970882417E0,2.369639692E-1,7.453092036E0,-1.809228072E0,7.673202658E0
4.980872417E0,1.754709949E0,6.038869255E0,-4.646659487E0,7.819104378E0
4.990862417E0,2.253791732E0,4.847179808E0,-4.389120044E0,6.916581816E0
5.000852417E0,-1.096345918E0,-2.063048540E0,7.047682940E0,7.424821780E0
5.010842417E0,-3.197404869E0,-1.091777606E1,1.785609501E1,2.117218366E1
5.020832417E0,2.630486906E-2,-7.447680438E0,-3.321588035E0,8.154850270E0
5.030822417E0,-9.644640157E-1,-1.362772194E1,-9.821722498E0,1.682590946E1
5.040811417E0,-1.072990151E1,-3.356794354E1,-1.832247975E0,3.528873407E1
5.050801417E0,-2.372617913E1,-5.358963790E1,3.413014514E0,5.870629893E1
5.060791417E0,-2.175313444E1,-5.159027372E1,-1.708023732E0,5.601493145E1
5.070781417E0,-3.287259967E1,-4.756230462E1,5.089625834E0,5.804037320E1
5.080771417E0,-3.218065654E1,-3.397610492E1,1.233490724E1,4.839545741E1
5.090761417E0,-1.770168642E1,-1.991496630E1,1.430012485E1,3.023986038E1
5.100751417E0,-9.663008600E0,-1.598338036E1,1.154457185E1,2.195721572E1
5.110741417E0,-5.281492860E0,-1.752641262E1,4.346689723E0,1.881390490E1
5.120730417E0,-3.780812272E0,-1.867592142E1,2.591971296E0,1.923025995E1
5.130720417E0,-4.502471535E0,-2.057579289E1,8.314365705E-1,2.107906045E1
5.140710417E0,-5.621786778E0,-1.976604474E1,-6.135248765E-1,2.055912021E1
5.150700417E0,-6.945600495E0,-1.729909510E1,-1.127589784E0,1.867542546E1
5.160690417E0,-7.534265422E0,-1.393579419E1,-9.780040475E-1,1.587224014E1
5.170680417E0,-6.898044505E0,-9.745767167E0,-4.938101526E-1,1.195018176E1
5.180670417E0,-5.819137908E0,-5.604097196E0,-5.555030286E-2,8.079069081E0
5.190660417E0,-4.625350772E0,-1.499502667E0,3.358540537E-1,4.873928185E0
5.200649417E0,-3.542759551E0,2.293337620E0,5.151999253E-1,4.251584839E0
5.210639417E0,-2.608623582E0,5.347316136E0,5.151350212E-1,5.971940300E0
5.220629417E0,-1.702807577E0,8.391021679E0,2.870404011E-1,8.566865860E0
5.230619417E0,-8.952901389E-1,1.075922880E1,-6.918658992E-2,1.079663539E1
5.240609417E0,-1.569602450E-1,1.272077436E1,-3.697007346E-1,1.272711340E1
5.250599417E0,6.888592335E-1,1.409748140E1,-4.361672044E-1,1.412103929E1
5.260589417E0,1.548638428E0,1.415388014E1,3.095574439E-1,1.424171442E1
5.270578417E0,8.909678771E-1,1.350870772E1,7.179842877E-1,1.355708336E1
5.280568417E0,4.412092219E-1,1.295512141E1,-4.494000381E-1,1.297042006E1
5.290558417E0,1.511714558E-1,1.227259346E1,-1.054012662E0,1.231869903E1
5.300548417E0,-1.940655792E-1,1.195588371E1,-1.474693515E0,1.204805119E1
5.310538417E0,-4.490587069E-1,1.204157231E1,-1.236943388E0,1.211326324E1
5.320528417E0,-6.903307584E-1,1.280654366E1,4.006621800E-2,1.282519872E1
5.330518417E0,-8.057084562E-1,1.393350443E1,1.462299757E0,1.403317613E1
5.340508417E0,-1.490383934E0,1.406458146E1,1.477980820E0,1.422034188E1
5.350497417E0,-2.352709810E0,1.360229591E1,8.455958225E-1,1.383013846E1
5.360487417E0,-2.882548678E0,1.288619910E1,-3.317088895E-1,1.320883208E1
5.370477417E0,-2.897850841E0,1.199929227E1,-2.034909400E0,1.251085171E1
5.380467417E0,-2.146712548E0,1.121529876E1,-3.874032969E0,1.205816870E1
5.390457417E0,-1.449915208E0,1.056428146E1,-5.003853028E0,1.177900005E1
5.400447417E0,-1.247689547E0,9.816724298E0,-4.846308573E0,1.101868921E1
5.410437417E0,-1.511247969E0,9.132011837E0,-3.404439572E0,9.862439830E0
5.420426417E0,-1.500545371E0,8.798439878E0,-1.776310440E0,9.100519737E0
5.430416417E0,-1.032461871E0,8.816597822E0,-6.813223187E-1,8.902953149E0
5.440406417E0,-5.640852429E-1,9.000078186E0,-7.385164931E-2,9.018040452E0
5.450396417E0,-9.086733922E-2,9.185302776E0,2.190944396E-1,9.188364725E0
5.460386417E0,2.397841909E-1,9.424415304E0,3.845912540E-1,9.435306604E0
5.470376417E0,3.791246190E-1,9.602797481E0,4.883722421E-1,9.622679585E0
5.480366417E0,4.312756430E-1,9.743112531E0,5.257231593E-1,9.766812444E0
5.490356417E0,3.484973419E-1,9.774610897E0,4.469811912E-1,9.791029607E0
5.500345417E0,1.701088788E-1,9.710754624E0,3.613894292E-1,9.718965723E0
5.510335417E0,-4.288223706E-2,9.604330621E0,3.175564349E-1,9.609674691E0
5.520325417E0,-2.421768350E-1,9.452431068E0,2.453883451E-1,9.458716518E0
5.530315417E0,-3.575135292E-1,9.298658652E0,8.695745230E-2,9.305935217E0
5.540305417E0,-3.517076095E-1,9.176550663E0,-1.837908518E-1,9.185127075E0
5.550295417E0,-2.203451590E-1,9.065022041E0,-5.492168333E-1,9.084317020E0
5.560285417E0,2.262528934E-2,9.011155152E0,-8.966699356E-1,9.055685841E0
5.570275417E0,3.801725131E-1,9.028042495E0,-1.179142492E0,9.112653810E0
5.580264417E0,8.596868082E-1,9.102885101E0,-1.271562998E0,9.231384026E0
5.590254417E0,1.329014523E0,9.047283343E0,-9.356948376E-1,9.192123820E0
5.600244417E0,1.654384007E0,8.717446586E0,-2.379998034E-1,8.876232609E0
5.610234333E0,1.553765997E0,8.218929352E0,5.438425112E-1,8.382168761E0
5.620224333E0,1.015918052E0,7.343866047E0,4.164088780E-1,7.425486810E0
5.630214333E0,1.656190358E0,5.857980961E0,-1.877424002E-1,6.090497078E0
5.640204333E0,2.651753229E0,5.379088737E0,-2.143064763E0,6.368604039E0
5.650194333E0,2.087439908E0,2.529216054E0,2.388509388E0,4.057008296E0
5.660183333E0,-1.424115685E0,-5.228317696E0,1.443416408E1,1.541779829E1
5.670173333E0,4.789948431E-1,-4.453355801E0,1.570036460E0,4.746243613E0
5.680163333E0,1.300451167E0,-6.088600409E0,-6.089630104E0,8.708950739E0
5.690153333E0,-3.798843623E0,-1.954081701E1,-5.023430675E0,2.053069891E1
5.700143333E0,-1.307125412E1,-4.437384599E1,-5.665400575E0,4.660464200E1
5.710133333E0,-1.781299519E1,-5.980197709E1,-1.006357269E1,6.320486339E1
5.720123333E0,-2.682618341E1,-6.712048785E1,-6.652667270E0,7.258830476E1
5.730113333E0,-2.852257996E1,-5.309112768E1,6.401501291E0,6.060680345E1
5.740102333E0,-1.716793737E1,-2.999506790E1,2.527558602E1,4.281702256E1
5.750092333E0,-9.868128340E0,-1.943543381E1,2.504032447E1,3.319840198E1
5.760082333E0,-6.382448723E0,-1.498190668E1,4.508420200E0,1.689730843E1
5.770072333E0,-4.108541985E0,-1.275248030E1,6.517294872E-1,1.341382206E1
5.780062333E0,-2.463880436E0,-1.521552049E1,-2.263247849E0,1.557899424E1
5.790052333E0,-2.118319639E0,-1.690687206E1,-3.616912186E0,1.741871564E1
5.800042333E0,-2.093085687E0,-1.635779629E1,-3.434154537E0,1.684493765E1
5.810032333E0,-2.275964227E0,-1.438335061E1,-2.867661082E0,1.484197655E1
5.820021333E0,-2.377364448E0,-1.145102809E1,-2.121914214E0,1.188614428E1
5.830011333E0,-2.271827322E0,-7.944875032E0,-1.091733634E0,8.335113735E0
5.840001333E0,-2.072867039E0,-3.951826081E0,1.160514067E-1,4.463986454E0
5.849991333E0,-1.815547011E0,2.847535551E-2,1.337924218E0,2.255451841E0
5.859981333E0,-1.778112991E0,3.516560517E0,1.943927894E0,4.393943483E0
5.869971333E0,-1.784475346E0,6.393193567E0,1.937733938E0,6.914628628E0
5.879961333E0,-1.699713669E0,8.891634555E0,1.854580684E0,9.240652636E0
5.889950333E0,-1.606653186E0,1.128458125E1,1.733619334E0,1.152946419E1
5.899940333E0,-1.619077934E0,1.325145829E1,1.529063265E0,1.343728376E1
5.909930333E0,-1.704264996E0,1.435655866E1,1.308520909E0,1.451645696E1
5.919920333E0,-1.627128381E0,1.492284513E1,3.581776267E-1,1.501556342E1
5.929910333E0,-1.590031306E0,1.458755643E1,1.416224867E-1,1.467463999E1
5.939900333E0,-1.944074805E0,1.407623847E1,-5.204296750E-1,1.421937985E1
5.949890333E0,-2.350085725E0,1.371621371E1,-1.576665448E0,1.400511675E1
5.959880333E0,-2.703853382E0,1.333966003E1,-2.141518759E0,1.377836912E1
5.969869333E0,-3.007942802E0,1.308765206E1,-2.606251366E0,1.367943356E1
5.979859333E0,-3.178342361E0,1.294247622E1,-3.321934775E0,1.373480256E1
5.989849333E0,-3.365614645E0,1.299480295E1,-3.767863321E0,1.394234771E1
5.999839333E0,-3.744405461E0,1.270410278E1,-3.233721925E0,1.363347927E1
6.009829333E0,-4.550288018E0,1.229073270E1,-2.229862586E0,1.329434159E1
6.019819333E0,-4.615681524E0,1.143211586E1,-1.482000196E0,1.241749224E1
6.029809333E0,-4.242008775E0,1.062290799E1,-1.195558623E0,1.150087705E1
6.039799333E0,-3.807187600E0,1.001674819E1,-1.117564294E0,1.077399052E1
6.049788333E0,-3.135315917E0,9.495137962E0,-1.021399670E0,1.005142319E1
6.059778333E0,-2.434936280E0,9.067722870E0,-8.697815144E-1,9.429158638E0
6.069768333E0,-1.775144944E0,8.711502306E0,-7.842806035E-1,8.925049472E0
6.079758333E0,-1.221177614E0,8.418622876E0,-7.508456397E-1,8.539804158E0
6.089748333E0,-7.983647188E-1,8.194632416E0,-7.063114911E-1,8.263671254E0
6.099738333E0,-4.837717624E-1,8.015293635E0,-5.855373980E-1,8.051199986E0
6.109728333E0,-2.584917361E-1,7.881028699E0,-4.751285179E-1,7.899568244E0
6.119718333E0,1.332397722E-1,7.888791463E0,-2.877192628E-1,7.895160920E0
6.129707333E0,8.922877398E-1,8.053341467E0,-3.665151715E-2,8.102705075E0
6.139697333E0,1.634578757E0,8.501555690E0,1.777750902E-1,8.659093534E0
6.149687333E0,2.054018393E0,9.013865921E0,2.458521755E-1,9.248200565E0
6.159677333E0,2.303700202E0,9.570003957E0,5.841324583E-2,9.843547250E0
6.169667333E0,2.397840813E0,1.005328861E1,-4.488977623E-1,1.034503560E1
6.179657333E0,2.341806653E0,1.026104720E1,-1.112811385E0,1.058354842E1
6.189647333E0,2.289732520E0,1.027098863E1,-1.710347416E0,1.066120869E1
6.199636333E0,2.200550348E0,1.003788354E1,-2.259881314E0,1.052181502E1
6.209626333E0,2.203877414E0,9.624719278E0,-2.768544345E0,1.025461528E1
6.219616333E0,2.315086047E0,9.348526046E0,-3.244174992E0,1.016263913E1
6.229606333E0,2.296378026E0,8.693139710E0,-3.294313405E0,9.575830558E0
6.239596333E0,2.213938572E0,7.758136014E0,-3.037686711E0,8.620773687E0
6.249586333E0,1.991293849E0,6.951512030E0,-2.053539506E0,7.517033670E0
6.259576333E0,1.594312637E0,6.114891245E0,1.004259288E-1,6.320111794E0
6.269566333E0,1.069184432E0,5.170951833E0,3.242974559E0,6.196675092E0
6.279555333E0,-2.055992121E-1,3.193840406E0,9.021892394E0,9.572744118E0
6.289545333E0,-2.512574878E0,-1.645751470E-1,1.401727982E1,1.424163794E1
6.299535333E0,-3.469186668E0,-2.906190140E0,8.430992661E0,9.568847084E0
6.309525333E0,-1.083575599E0,-8.776811612E0,1.975225700E0,9.061350601E0
6.319515333E0,-1.504768961E0,-1.876638370E1,3.526608372E0,1.915407146E1
6.329505333E0,-5.710447524E0,-2.794428331E1,6.364874917E0,2.922334364E1
6.339495333E0,-9.418173401E0,-3.204712953E1,5.695607876E0,3.388451638E1
6.349485333E0,-1.593638979E1,-3.782620407E1,8.086651300E0,4.183520244E1
6.359474333E0,-2.636045737E1,-4.061866118E1,1.466050629E1,5.059327815E1
6.369464333E0,-2.395274470E1,-2.722440219E1,1.550461502E1,3.943723038E1
6.379454333E0,-1.403346842E1,-1.445461530E1,1.236252247E1,2.363696472E1
6.389444333E0,-8.332158344E0,-1.087069427E1,1.068485573E1,1.737132691E1
6.399434333E0,-3.969473562E0,-1.016820745E1,7.609861150E0,1.330635749E1
6.409424333E0,-2.053917528E0,-9.594064080E0,4.851543585E0,1.094541538E1
6.419414333E0,-1.191845275E0,-1.012259332E1,3.334776430E0,1.072418409E1
6.429404333E0,-1.075736822E0,-1.108929360E1,1.456392315E0,1.123613461E1
6.439394333E0,-2.076011525E0,-1.209924808E1,7.980864644E-3,1.227606173E1
6.449383333E0,-4.435284688E0,-1.321420568E1,-8.345806915E-1,1.396364949E1
6.459373333E0,-7.151692627E0,-1.354200878E1,-1.700424106E0,1.540857396E1
6.469363333E0,-8.669473690E0,-1.241814586E1,-2.291567084E0,1.531735618E1
6.479353333E0,-9.080835251E0,-9.793935944E0,-2.642901714E0,1.361497997E1
6.489343333E0,-8.955246999E0,-6.458853121E0,-2.795904052E0,1.138992151E1
6.499333333E0,-8.744950134E0,-3.130820870E0,-2.620557164E0,9.651088644E0
6.509323333E0,-8.491566306E0,-3.391858703E-1,-2.108377326E0,8.755969412E0
6.519312333E0,-7.679634805E0,2.130294444E0,-1.252779987E0,8.067490493E0
6.529302333E0,-6.212668970E0,4.073555170E0,-1.910203493E-1,7.431527180E0
6.539292333E0,-4.514417396E0,5.295338482E0,9.056986213E-1,7.017183485E0
6.549282333E0,-3.121634894E0,6.026010643E0,1.832486103E0,7.029609804E0
6.559272333E0,-2.200152591E0,6.875771291E0,2.590158659E0,7.669799486E0
6.569262333E0,-1.691626824E0,8.036889741E0,3.422619735E0,8.897613380E0
6.579252333E0,-1.162466817E0,9.357111513E0,4.509100231E0,1.045173908E1
6.589242333E0,-4.375062168E-1,1.092519500E1,6.374150355E0,1.265626684E1
6.599231333E0,1.546844356E-1,1.295264102E1,9.513356717E0,1.607167672E1
6.609221917E0,-2.635017036E-1,1.411622056E1,1.104594819E1,1.792624019E1
6.619211917E0,-1.973429728E0,1.280841009E1,5.033257506E0,1.390264273E1
6.629201917E0,-2.375218228E0,1.053521145E1,8.042927722E-1,1.082955349E1
6.639191917E0,-1.716759180E0,9.000520821E0,2.762166202E-1,9.166947842E0
6.649181917E0,-1.044122096E0,8.171161693E0,2.692724669E-1,8.242001093E0
6.659171917E0,-6.289294392E-1,7.479048995E0,-1.271418571E-1,7.506523241E0
6.669161917E0,-3.267515469E-1,6.835529584E0,-1.259828221E0,6.958333019E0
6.679150917E0,1.271159832E-1,6.310095862E0,-1.706033925E0,6.537891098E0
6.689140917E0,8.734544429E-1,6.088725539E0,-2.102837673E0,6.500571332E0
6.699130917E0,2.119705136E0,6.042882784E0,-2.561462864E0,6.897149716E0
6.709120917E0,2.085356253E0,6.360664337E0,-2.559642625E0,7.166486718E0
6.719110917E0,1.415783695E0,7.083319380E0,-2.542322588E0,7.657758226E0
6.729100917E0,1.328535928E0,7.588036417E0,-2.425725600E0,8.076351222E0
6.739090917E0,1.505959454E0,7.904992343E0,-2.180760008E0,8.337417588E0
6.749080917E0,1.758849339E0,8.123953612E0,-2.098980265E0,8.573091126E0
6.759069917E0,2.053947495E0,8.257189438E0,-2.062052175E0,8.755109188E0
6.769059917E0,2.311325264E0,8.338800781E0,-1.929872503E0,8.865789915E0
6.779049917E0,2.514819624E0,8.412534755E0,-1.793838492E0,8.961747334E0
6.789039917E0,2.740270134E0,8.537709024E0,-1.564708330E0,9.102190283E0
6.799029917E0,3.263390113E0,8.567342128E0,-5.178845282E-1,9.182443605E0
6.809019917E0,3.930763533E0,8.723577976E0,3.622951775E0,1.023120199E1
6.819009917E0,4.174015598E0,9.042673983E0,8.847095729E0,1.332154127E1
6.828998917E0,2.438915310E0,8.846537905E0,2.055972825E0,9.404071727E0
6.838988917E0,1.174221914E0,8.644880301E0,-1.203849317E0,8.806929414E0
6.848978917E0,6.789190400E-1,8.584794313E0,-2.517536826E0,8.972046373E0
6.858968917E0,3.981452461E-1,8.511049229E0,-3.365315267E0,9.160885627E0
6.868958917E0,2.890984748E-1,8.131749120E0,-3.574328084E0,8.887336099E0
6.878948917E0,2.207687898E-1,7.367970024E0,-3.134526543E0,8.010054793E0
6.888938917E0,-1.247444987E-2,6.224400823E0,-1.848056069E0,6.492967923E0
6.898928917E0,-4.509801020E-1,4.699366874E0,1.430939385E-1,4.723124807E0
6.908917917E0,-4.717336245E-1,2.562066296E0,2.368531060E0,3.520888482E0
6.918907917E0,-1.730703474E-1,-1.173360765E-1,3.666914358E0,3.672871086E0
6.928897917E0,-2.636548276E-1,-3.572067550E0,3.879673778E0,5.280250854E0
6.938887917E0,-8.185368088E-1,-7.652066937E0,3.150594984E0,8.315670729E0
6.948877917E0,-2.291154855E0,-1.270566983E1,4.975071278E0,1.383599547E1
6.958867917E0,-5.268847672E0,-1.581626460E1,8.406521478E0,1.867042005E1
6.968857917E0,-8.089443930E0,-1.377941392E1,1.053334151E1,1.913798930E1
6.978847917E0,-8.910733901E0,-1.040000043E1,9.918999116E0,1.690998909E1
6.988836917E0,-8.527220873E0,-6.819729238E0,9.443219365E0,1.443594800E1
6.998826917E0,-7.673201113E0,-3.381113275E0,9.626132550E0,1.276606322E1
7.008816917E0,-6.274631329E0,-1.202404470E0,1.227727007E1,1.384009159E1
7.018806917E0,-2.878345699E0,-7.050221801E-1,1.560371129E1,1.588262372E1
7.028796917E0,3.342184852E0,-2.922072932E0,1.580200441E1,1.641377632E1
7.038786917E0,8.887474262E0,-5.125826531E0,1.134703653E1,1.529759897E1
7.048776917E0,1.146393289E1,-5.549652017E0,9.841144609E0,1.609560568E1
7.058766917E0,1.105440911E1,-6.405535285E0,1.188679534E1,1.745069473E1
7.068756917E0,8.427833995E0,-7.780252522E0,2.774248888E0,1.180072761E1
7.078745917E0,4.315001615E0,-6.996299948E0,-8.116943386E0,1.155215226E1
7.088735917E0,2.293877903E0,-5.565862253E0,-9.245242583E0,1.103246160E1
7.098725917E0,1.787343552E0,-4.387546558E0,8.087751746E-2,4.738322798E0
7.108715917E0,1.823997992E-1,-1.860331421E0,4.777518127E0,5.130183441E0
7.118705917E0,-6.671982962E-1,4.854492921E-1,1.008451742E-1,8.312546726E-1
7.128695917E0,-2.141336034E0,1.863201234E0,-1.851768174E0,3.389083094E0
7.138685917E0,-4.149854026E0,1.976751239E0,-2.268224999E0,5.125785651E0
7.148675917E0,-4.240454001E0,1.395467252E-1,-3.910166423E0,5.769776848E0
7.158664917E0,-3.597309688E0,-3.279627246E0,-5.435637159E0,7.296762514E0
7.168654917E0,-2.442809702E0,-7.109242426E0,-7.851137148E0,1.086963668E1
7.178644917E0,-1.910340610E0,-9.682828907E0,-1.066325728E1,1.452968110E1
7.188634917E0,-2.542259438E0,-1.231327605E1,-1.211931338E1,1.746303545E1
7.198624917E0,-3.096472571E0,-1.469444821E1,-1.157749869E1,1.896189406E1
7.208614917E0,-3.346906186E0,-1.621028273E1,-9.966908863E0,1.932134363E1
7.218604917E0,-2.989290184E0,-1.684466821E1,-8.544205865E0,1.912281770E1
7.228594917E0,-2.351560978E0,-1.577121297E1,-6.355025282E0,1.716529475E1
7.238583917E0,-1.732443459E0,-1.299435622E1,-3.181628496E0,1.348990044E1
7.248573917E0,-1.461321372E0,-9.683029466E0,4.594490629E-1,9.803449048E0
7.258563917E0,-1.380941452E0,-6.763680752E0,5.919259197E0,9.093514505E0
7.268553917E0,-1.260073365E0,-4.805485067E0,1.462127264E1,1.544221763E1
7.278543917E0,-1.246643334E0,-2.906156226E0,2.253948671E1,2.276023560E1
7.288533917E0,-1.383002888E0,-4.476517206E-1,1.958346543E1,1.963734216E1
7.298523917E0,-1.349227616E0,1.777224945E0,8.539914594E0,8.826612314E0
7.308513917E0,-1.268099400E0,3.693106084E0,3.045349195E0,4.951894623E0
7.318502917E0,-7.469490552E-1,4.963500808E0,-1.824780350E0,5.340795492E0
7.328492917E0,-4.314060359E-1,5.480000569E0,-5.178585373E0,7.552103275E0
7.338482917E0,-5.983974718E-1,6.416615174E0,-3.639519861E0,7.401157655E0
7.348472917E0,-1.132458103E0,7.756216958E0,-1.644142317E0,8.009030329E0
7.358462917E0,-2.157019143E0,9.115781720E0,-6.517429358E-1,9.390153184E0
7.368452917E0,-3.036865470E0,1.022152704E1,-3.645241946E-1,1.066935072E1
7.378442917E0,-3.053120437E0,1.090865206E1,-6.677789247E-1,1.134751792E1
7.388432917E0,-2.396590970E0,1.130041317E1,-3.138930812E-1,1.155601640E1
7.398421917E0,-1.144626816E0,1.146146186E1,6.373155159E-1,1.153609334E1
7.408411917E0,4.058671887E-1,1.134666465E1,1.545465290E0,1.145862076E1
7.418401917E0,1.354176261E0,1.096758498E1,1.953018121E0,1.122212072E1
7.428391917E0,1.596647723E0,1.042432017E1,1.366606565E0,1.063406547E1
7.438381917E0,1.459365039E0,9.792001686E0,2.508470133E-2,9.900185482E0
7.448371917E0,1.324376365E0,9.256359310E0,-1.035014473E0,9.407731681E0
7.458361917E0,1.256210987E0,8.908505527E0,-1.747657329E0,9.164815487E0
7.468351917E0,1.265519754E0,8.692667255E0,-2.257004777E0,9.069623742E0
7.478340917E0,1.378616015E0,8.715741538E0,-2.562159559E0,9.188546908E0
7.488330917E0,1.614338035E0,8.558967161E0,-2.112839628E0,8.962482773E0
7.498320917E0,2.146265967E0,8.591165439E0,-9.720689043E-1,8.908394870E0
7.508310917E0,2.269014811E0,8.889467577E0,-4.682423982E-1,9.186420030E0
7.518300917E0,1.421813197E0,9.299716998E0,-8.945441803E-1,9.450211548E0
7.528290917E0,2.455182629E-1,9.447271485E0,-1.456908332E0,9.562102260E0
7.538280917E0,-6.726729711E-1,9.163187436E0,-1.854865736E0,9.373207552E0
7.548270917E0,-1.241167417E0,8.683817495E0,-2.245492194E0,9.054911265E0
7.558259917E0,-1.636027258E0,8.099502895E0,-2.576315376E0,8.655399082E0
7.568249917E0,-1.900697089E0,7.500579028E0,-2.945656507E0,8.279385692E0
7.578239917E0,-2.037311144E0,6.963053264E0,-3.620552663E0,8.108214911E0
7.588229917E0,-2.100454348E0,6.461325908E0,-4.427705820E0,8.109575808E0
7.598219917E0,-2.310491012E0,5.912667630E0,-5.059878709E0,8.117904888E0
7.608209458E0,-2.690364440E0,5.116776795E0,-5.397692823E0,7.909143658E0
7.618199458E0,-3.030476802E0,3.971144112E0,-5.472502100E0,7.409592056E0
7.628189458E0,-3.285813600E0,2.309506926E0,-5.310297414E0,6.658051658E0
7.638178458E0,-3.375990821E0,2.777053213E-1,-4.464940889E0,5.604474232E0
7.648168458E0,-2.848534840E0,-2.052776152E0,-1.727489698E0,3.913088463E0
7.658158458E0,-1.150113844E0,-4.418725081E0,1.698268238E0,4.871550903E0
7.668148458E0,2.832412275E-1,-6.545417055E0,1.475146675E0,6.715561610E0
7.678138458E0,-2.762007414E-1,-8.503226824E0,3.155794913E-1,8.513562338E0
7.688128458E0,-3.239751281E0,-1.009440506E1,3.082857914E0,1.104069811E1
7.698118458E0,-5.708347789E0,-1.230175002E1,8.925455436E0,1.623520997E1
7.708108458E0,-4.280632558E0,-1.354882897E1,5.748749126E0,1.532784062E1
7.718097458E0,-2.479383159E0,-1.420846740E1,1.315249008E0,1.448301649E1
7.728087458E0,-6.747617427E-1,-1.313688795E1,3.842209791E0,1.370385729E1
7.738077458E0,2.995080682E0,-8.492481980E0,1.757175427E0,9.174989044E0
7.748067458E0,4.459659684E0,-6.457520540E0,-5.005458089E0,9.308208566E0
7.758057458E0,4.263274222E0,-9.356785823E0,-5.461050913E0,1.164250940E1
7.768047458E0,1.627451878E0,-1.476944927E1,-9.986401141E-2,1.485917912E1
7.778037458E0,-2.570679245E0,-1.611240502E1,6.749978971E-1,1.633014420E1
7.788027458E0,-3.929109063E0,-1.780289120E1,3.353258309E0,1.853712961E1
7.798016458E0,-2.502149878E0,-1.914682928E1,6.414056432E0,2.034703775E1
7.808006458E0,-8.096453865E-1,-1.487076281E1,-2.373665500E-1,1.489467875E1
7.817996458E0,-2.376784551E0,-1.278719639E1,-3.437678069E0,1.345284828E1
7.827986458E0,-3.956838314E0,-1.357682778E1,-3.585857039E0,1.458921494E1
7.837976458E0,-4.873389367E0,-1.473857831E1,-2.894349529E0,1.579091111E1
7.847966458E0,-5.545929680E0,-1.578844588E1,-1.675633666E0,1.681785086E1
7.857956458E0,-5.095112861E0,-1.562652362E1,-1.937864916E0,1.655003734E1
7.867946458E0,-4.713710094E0,-1.515787747E1,-2.609976335E0,1.608702237E1
7.877935458E0,-4.207429512E0,-1.482858801E1,-2.985816061E0,1.570046442E1
7.887925458E0,-3.230792470E0,-1.462609542E1,-2.767202409E0,1.523214025E1
7.897915458E0,-2.201581066E0,-1.402604831E1,-1.680119357E0,1.429684550E1
7.907905458E0,-1.391516142E0,-1.224531620E1,-9.454976946E-2,1.232448886E1
7.917895458E0,-1.079051535E0,-9.499580677E0,1.850691409E0,9.738143762E0
7.927885458E0,-1.094828127E0,-6.290340459E0,4.155248667E0,7.617947440E0
7.937875458E0,-1.613981647E0,-3.086025351E0,6.561575251E0,7.428509878E0
7.947865458E0,-2.624808967E0,-5.643381715E-1,7.264173176E0,7.744437462E0
7.957855458E0,-3.624246056E0,1.220596912E0,5.709148273E0,6.871636654E0
7.967844458E0,-4.205991974E0,3.291722211E0,3.646486233E0,6.467044568E0
7.977834458E0,-4.184175720E0,5.833268874E0,2.058145065E0,7.467952418E0
7.987824458E0,-3.311885165E0,8.764921299E0,1.292559764E0,9.458495624E0
7.997814458E0,-2.672917226E0,1.131688828E1,1.361864473E0,1.170773769E1
8.007804458E0,-2.402232072E0,1.290408340E1,2.453843105E0,1.335318064E1
8.017794458E0,-2.127758945E0,1.339921276E1,2.956521803E0,1.388550618E1
8.027784458E0,-2.079856800E0,1.289779296E1,2.193519656E0,1.324727882E1
8.037774458E0,-2.208704729E0,1.162990611E1,9.255224365E-1,1.187390772E1
8.047763458E0,-2.768928215E0,1.035458628E1,-8.245749360E-1,1.075008578E1
8.057753458E0,-4.173764752E0,9.180815622E0,-2.799959680E0,1.046649234E1
8.067743458E0,-5.345329837E0,8.149087284E0,-4.510476373E0,1.073892787E1
8.077733458E0,-5.877914704E0,8.158188475E0,-6.089914278E0,1.175555088E1
8.087723458E0,-6.289457529E0,8.801057092E0,-7.967920078E0,1.343516402E1
8.097713458E0,-6.554953279E0,9.440184075E0,-9.393765954E0,1.484342705E1
8.107703458E0,-6.638168514E0,1.028168085E1,-9.837603536E0,1.570212361E1
8.117693458E0,-6.089237756E0,1.092838992E1,-8.694409141E0,1.523487030E1
8.127682458E0,-4.917035324E0,1.105405360E1,-6.583047981E0,1.377337497E1
8.137672458E0,-3.501294606E0,1.080314724E1,-4.836265980E0,1.234327845E1
8.147662458E0,-2.169822206E0,1.040852099E1,-3.640835484E0,1.123837714E1
8.157652458E0,-1.098799044E0,1.001880524E1,-2.906988870E0,1.048972841E1
8.167642458E0,-2.688084721E-1,9.685202876E0,-2.609191054E0,1.003410637E1
8.177632458E0,3.986116711E-1,9.333499871E0,-2.339486185E0,9.630488395E0
8.187622458E0,1.070333118E0,9.024626552E0,-1.897812658E0,9.283921061E0
8.197612458E0,2.026347907E0,8.883820336E0,-8.314746505E-1,9.149846977E0
8.207601458E0,2.971316136E0,8.723990790E0,1.257342423E0,9.301486163E0
8.217591458E0,3.509614902E0,8.557374380E0,3.311985737E0,9.824220201E0
8.227581458E0,3.873540049E0,8.555057128E0,4.105609022E0,1.024935805E1
8.237571458E0,3.898719622E0,8.508299283E0,3.128744524E0,9.868141349E0
8.247561458E0,3.755331276E0,8.560893234E0,1.805699131E0,9.521132039E0
8.257551458E0,3.617122978E0,8.705955638E0,7.956749265E-1,9.460990476E0
8.267541458E0,3.339990976E0,8.943742018E0,2.579060644E-3,9.547044970E0
8.277531458E0,2.950066769E0,9.265337709E0,-5.747245806E-1,9.740620368E0
8.287520458E0,2.487366070E0,9.543537120E0,-7.225638270E-1,9.888791090E0
8.297510458E0,1.916466299E0,9.552381034E0,-5.365633124E-1,9.757495923E0
8.307500458E0,1.104857198E0,9.257262120E0,-5.702010284E-1,9.340382251E0
8.317490458E0,5.767348534E-1,8.868135180E0,-1.257468869E0,8.975392617E0
8.327480458E0,4.532782039E-1,8.184432533E0,-1.953428596E0,8.426522432E0
8.337470458E0,3.008395377E-1,6.770260624E0,-1.589822853E0,6.960924511E0
8.347460458E0,2.469046743E-1,4.589777774E0,-1.046351932E-1,4.597604860E0
8.357450458E0,-1.185143197E0,6.367547679E-1,6.640511493E0,6.775427213E0
8.367439458E0,-2.243236923E0,-1.357297797E0,6.553836461E0,7.058834292E0
8.377429458E0,2.842562494E-1,-9.427103269E-1,-3.019147237E0,3.175650235E0
8.387419458E0,-5.386148080E-2,-5.731682857E0,-4.095816105E0,7.044912988E0
8.397409458E0,-3.976905373E0,-1.603625322E1,-4.769737530E0,1.719673195E1
8.407399458E0,-1.159357853E1,-3.121065492E1,-4.884825937E0,3.365081824E1
8.417389458E0,-1.122663066E1,-4.021615757E1,-2.056465745E-1,4.175426752E1
8.427379458E0,-1.196364647E1,-4.465017137E1,9.027662426E0,4.709846419E1
8.437369458E0,-9.666650246E0,-3.268674241E1,1.250412098E1,3.630730365E1
8.447359458E0,-6.203018725E0,-2.317752553E1,1.499063775E1,2.829124159E1
8.457348458E0,-6.463250227E0,-2.125313669E1,3.838269644E0,2.254333020E1
8.467338458E0,-6.303109024E0,-2.159030585E1,4.171432883E-1,2.249543284E1
8.477328458E0,-6.411084293E0,-2.267966552E1,-8.387281946E-1,2.358331391E1
8.487318458E0,-6.192606003E0,-2.431160236E1,-2.794092182E-1,2.508944893E1
8.497308458E0,-5.356221446E0,-2.555655175E1,1.792132421E0,2.617323412E1
8.507298458E0,-4.624639458E0,-2.522884572E1,4.186374273E0,2.598860666E1
8.517288458E0,-4.041331750E0,-2.281374451E1,6.370643195E0,2.402882427E1
8.527278458E0,-3.927592295E0,-1.918764752E1,5.842237333E0,2.043828602E1
8.537268458E0,-4.035583937E0,-1.548139105E1,3.621757189E0,1.640355241E1
8.547257458E0,-3.696481681E0,-1.190148238E1,2.265118373E0,1.266649205E1
8.557247458E0,-3.249566710E0,-8.364022745E0,1.429022083E0,9.086179858E0
8.567237458E0,-3.194528039E0,-4.929561814E0,9.957580215E-1,5.957946215E0
8.577227458E0,-3.252832672E0,-1.750463993E0,5.615174747E-1,3.736354702E0
8.587217458E0,-3.413537255E0,1.125051654E0,-2.083918422E-1,3.600195130E0
8.597207458E0,-3.862150258E0,3.306487015E0,-6.197300148E-1,5.121828413E0
8.607197917E0,-4.198991395E0,5.175598031E0,-1.146410948E0,6.762588393E0
8.617187917E0,-4.336309161E0,7.612431001E0,-1.478781888E0,8.884789179E0
8.627176917E0,-4.936245766E0,1.058743644E1,-1.747391281E0,1.181159214E1
8.637166917E0,-5.606221490E0,1.347740874E1,-2.160916897E0,1.475600988E1
8.647156917E0,-5.763551937E0,1.482948848E1,-1.601931267E0,1.599057358E1
8.657146917E0,-6.004543176E0,1.516113320E1,-1.037987198E0,1.633988727E1
8.667136917E0,-5.984358587E0,1.484557768E1,-7.719295299E-1,1.602496801E1
8.677126917E0,-5.877130008E0,1.430109548E1,-5.148449993E-1,1.547019892E1
8.687116917E0,-5.656576542E0,1.397681241E1,-5.487875015E-1,1.508805193E1
8.697106917E0,-5.231263524E0,1.383215698E1,-6.970723057E-1,1.480474905E1
8.707095917E0,-4.141141382E0,1.336457385E1,-3.998834405E-1,1.399717089E1
8.717085917E0,-2.418827201E0,1.239985343E1,-1.832991010E-1,1.263489963E1
8.727075917E0,-1.277709152E0,1.146969240E1,-7.383688509E-2,1.154087676E1
8.737065917E0,-8.185908224E-1,1.088236532E1,2.942720912E-2,1.091314949E1
8.747055917E0,-4.435767961E-1,1.058102321E1,1.215172742E-1,1.059101407E1
8.757045917E0,3.731093690E-2,1.030145614E1,8.835800663E-2,1.030190263E1
8.767035917E0,4.199336527E-1,9.962605312E0,-2.783549470E-1,9.975336102E0
8.777025917E0,7.186291625E-1,9.637085554E0,-1.117921559E0,9.728288362E0
8.787014917E0,9.826845974E-1,9.390522503E0,-2.194550081E0,9.693483995E0
8.797004917E0,1.218358305E0,9.233805429E0,-3.023268355E0,9.792227081E0
8.806994917E0,1.416097690E0,9.132486631E0,-3.400651746E0,9.847440125E0
8.816984917E0,1.565872365E0,9.092755970E0,-3.334728482E0,9.810738068E0
8.826974917E0,1.684737927E0,9.087764202E0,-2.750009841E0,9.643046935E0
8.836964917E0,1.851764519E0,9.023357121E0,-1.713423636E0,9.369409060E0
8.846954917E0,2.016018508E0,8.930335522E0,-4.791356148E-1,9.167594782E0
8.856944917E0,1.925965393E0,8.760192656E0,4.573580255E-1,8.981063101E0
8.866934917E0,9.882436915E-1,8.566239928E0,5.952862414E-1,8.643578993E0
8.876923917E0,8.486983186E-2,8.706580705E0,1.767349436E-1,8.708787843E0
8.886913917E0,-1.782548725E-1,8.941218944E0,-2.201948856E-1,8.945706053E0
8.896903917E0,-3.512184168E-1,9.115069529E0,-6.372756086E-1,9.144067317E0
8.906893917E0,-5.473823059E-1,9.308651544E0,-1.030893940E0,9.381543757E0
8.916883917E0,-8.315952493E-1,9.508374304E0,-1.360372409E0,9.641127821E0
8.926873917E0,-1.329365794E0,9.768048567E0,-1.427626791E0,9.960928896E0
8.936863917E0,-2.010761569E0,1.003042600E1,-1.218661337E0,1.030231737E1
8.946853917E0,-2.615318059E0,1.026545132E1,-9.984794618E-1,1.064031675E1
8.956842917E0,-3.069146193E0,1.053895133E1,-9.075480956E-1,1.101420887E1
8.966832917E0,-3.452306634E0,1.078732701E1,-9.369600289E-1,1.136497863E1
8.976822917E0,-3.743483940E0,1.101254539E1,-9.185344291E-1,1.166762758E1
8.986812917E0,-3.744526206E0,1.107208408E1,-9.060993017E-1,1.172320512E1
8.996802917E0,-3.134030991E0,1.062373595E1,-1.734318223E0,1.121132354E1
9.006792917E0,-1.816479058E0,9.822055789E0,-2.856364846E0,1.038899400E1
9.016782917E0,-1.452752277E0,9.228877396E0,-2.983259366E0,9.807267898E0
9.026772917E0,-7.154979055E-1,7.769007157E0,-3.132670344E0,8.407320200E0
9.036761917E0,5.392619486E-1,3.683227798E0,-1.041506052E0,3.865450209E0
9.046751917E0,-4.420027256E-2,-1.726251258E0,4.686256247E0,4.994286204E0
9.056741917E0,-9.515089247E-1,-1.340330347E0,2.428927535E-1,1.661581043E0
9.066731917E0,-8.410865960E-1,-5.486676920E0,-2.801574097E0,6.217705984E0
9.076721917E0,-2.114554032E0,-1.496530527E1,-3.315159021E0,1.547326662E1
9.086711917E0,-7.481248133E0,-3.678876534E1,1.545109195E0,3.757352380E1
9.096701917E0,-1.419469487E1,-6.231059632E1,1.653905997E0,6.392835976E1
9.106691917E0,-1.567402172E1,-6.195264381E1,-6.252464535E0,6.420979945E1
9.116681917E0,-1.633319939E1,-5.314765388E1,-7.908405948E-1,5.560640201E1
9.126670917E0,-1.459965432E1,-3.778369481E1,1.130138805E0,4.052202751E1
9.136660917E0,-9.376499126E0,-2.830640606E1,5.039524552E0,3.024182811E1
9.146650917E0,-5.456898805E0,-2.429125171E1,2.977579381E0,2.507406295E1
9.156640917E0,-3.504534549E0,-2.409416546E1,5.152758660E-1,2.435315340E1
9.166630917E0,-3.284013242E0,-2.526902077E1,-1.221348864E0,2.551077903E1
9.176620917E0,-3.613163829E0,-2.476108718E1,-2.314452501E0,2.513012299E1
9.186610917E0,-3.802272138E0,-2.287753296E1,-2.849167508E0,2.336571298E1
9.196600917E0,-3.904643728E0,-1.952768416E1,-3.061845945E0,2.014824042E1
9.206590917E0,-3.765767386E0,-1.511559391E1,-2.916269571E0,1.584824317E1
9.216579917E0,-3.480727025E0,-1.038175478E1,-2.504092323E0,1.123239829E1
9.226569917E0,-2.889772036E0,-5.689111619E0,-2.182177812E0,6.743787766E0
9.236559917E0,-2.475183981E0,-1.521648996E0,-2.530753287E0,3.853136853E0
9.246549917E0,-2.418313230E0,1.605117999E0,-2.672250643E0,3.945322062E0
9.256539917E0,-2.753408827E0,4.266378216E0,-2.563572539E0,5.688158526E0
9.266529917E0,-2.783284883E0,7.265813320E0,-2.560143147E0,8.191034786E0
9.276519917E0,-3.049122403E0,1.102720319E1,-2.831991313E0,1.178628578E1
9.286509917E0,-3.916149002E0,1.375860134E1,-3.069135668E0,1.463061611E1
9.296498917E0,-4.698565513E0,1.498545945E1,-2.793098558E0,1.595123545E1
9.306488917E0,-5.150090722E0,1.562717266E1,-2.058207631E0,1.658216447E1
9.316478917E0,-5.735525063E0,1.595723746E1,-1.165517968E0,1.699670871E1
9.326468917E0,-6.167434909E0,1.614301402E1,-3.613184586E-2,1.728107232E1
9.336458917E0,-6.223147180E0,1.685667956E1,2.203364174E0,1.810331517E1
9.346448917E0,-5.760975069E0,1.794180701E1,5.966660820E0,1.976609000E1
9.356438917E0,-5.087287533E0,1.698162403E1,5.347204455E0,1.851617252E1
9.366428917E0,-4.114402065E0,1.375583795E1,2.645466887E0,1.459965332E1
9.376418917E0,-3.812152471E0,1.173655699E1,2.486766730E-1,1.234265435E1
9.386407917E0,-3.786570318E0,1.081446043E1,-2.074101532E0,1.164442211E1
9.396397917E0,-3.655213788E0,1.024370903E1,-3.772245809E0,1.151190693E1
9.406387917E0,-3.254846161E0,9.610393015E0,-4.924050229E0,1.127829544E1
9.416377917E0,-2.677399117E0,8.499022091E0,-5.815401537E0,1.064052337E1
9.426367917E0,-2.172765987E0,7.336906691E0,-5.862100909E0,9.639260288E0
9.436357917E0,-1.800066508E0,6.585014985E0,-4.699590822E0,8.287871601E0
9.446347917E0,-1.321653171E0,6.355111821E0,-2.786995234E0,7.064103325E0
9.456337917E0,-6.162030474E-1,6.800356827E0,-1.170919552E0,6.927886530E0
9.466326917E0,-2.153930790E-1,7.512600904E0,-2.994552094E-1,7.521651410E0
9.476316917E0,-1.714145621E-1,8.107872600E0,-1.589898866E-1,8.111242743E0
9.486306917E0,-1.915348677E-1,8.561497251E0,-3.879358613E-1,8.572421771E0
9.496296917E0,-1.929053820E-1,8.950283883E0,-6.682525492E-1,8.977268824E0
9.506286917E0,-2.826064575E-1,9.225070274E0,-7.835526252E-1,9.262599132E0
9.516276917E0,-4.494062508E-1,9.282895144E0,-6.975903690E-1,9.319910973E0
9.526266917E0,-7.327224872E-1,9.121649401E0,-4.815228868E-1,9.163691087E0
9.536256917E0,-1.005104796E0,8.845227544E0,-2.509157181E-1,8.905686085E0
9.546246917E0,-1.243620031E0,8.590823961E0,-1.266857743E-1,8.681295779E0
9.556235917E0,-1.470663760E0,8.505044138E0,-1.494975168E-1,8.632553342E0
9.566225917E0,-1.656906788E0,8.588755217E0,-3.460159298E-1,8.753958150E0
9.576215917E0,-1.781985163E0,8.858846294E0,-6.769601496E-1,9.061617064E0
9.586205917E0,-1.950382343E0,9.257064484E0,-1.040065810E0,9.517298515E0
9.596195917E0,-1.930830423E0,9.653014539E0,-1.401220912E0,9.943450903E0
9.606185542E0,-1.764153056E0,1.000645007E1,-1.739212196E0,1.030854685E1
9.616175542E0,-1.503686349E0,1.027581960E1,-2.123377042E0,1.060010713E1
9.626165542E0,-1.154023365E0,1.046370000E1,-2.550475361E0,1.083169941E1
9.636154542E0,-8.303416063E-1,1.053125756E1,-3.077864977E0,1.100318616E1
9.646144542E0,-5.799211474E-1,1.050795991E1,-3.668227935E0,1.114492828E1
9.656134542E0,-3.767143967E-1,1.045209912E1,-4.287826973E0,1.130370514E1
9.666124542E0,-8.395180073E-2,9.975933455E0,-4.754112308E0,1.105114836E1
9.676114542E0,1.921722873E-1,8.844654517E0,-4.483492350E0,9.917991095E0
9.686104542E0,3.027259956E-1,7.852730514E0,-3.685791217E0,8.679981363E0
9.696094542E0,-2.586505611E-1,6.377590272E0,-3.036859623E0,7.068456278E0
9.706084542E0,-1.405066918E-1,5.315422499E0,-2.334653608E0,5.807242542E0
9.716074542E0,1.166956456E0,3.057037779E0,3.877690695E-1,3.295092139E0
9.726063542E0,3.165391948E0,-7.872892883E0,1.989625989E1,2.163014808E1
9.736053542E0,4.341625450E0,-1.704057917E1,2.200861098E1,2.817108460E1
9.746043542E0,2.716341573E0,-2.300122028E1,4.500217726E0,2.359420703E1
9.756033542E0,7.519984183E-1,-3.843324796E1,-7.622016342E0,3.918896763E1
9.766023542E0,-4.890983639E0,-6.950732128E1,-3.356819848E0,6.976000052E1
9.776013542E0,-1.099707950E1,-8.278644158E1,1.011193384E1,8.412361068E1
9.786003542E0,-1.477896503E1,-5.365972497E1,1.346324328E1,5.726292701E1
9.795993542E0,-1.226988153E1,-2.531866831E1,1.657622020E1,3.265510731E1
9.805983542E0,-7.489840617E0,-1.596127321E1,1.547613557E1,2.345998139E1
9.815972542E0,-3.778023735E0,-1.446494265E1,6.734293815E0,1.639691259E1
9.825962542E0,-2.268417957E0,-1.335715724E1,3.765769433E0,1.406201938E1
9.835952542E0,-1.023625851E0,-1.149302279E1,5.300234356E0,1.269763234E1
9.845942542E0,-1.330756116E-1,-1.064885091E1,4.421923508E0,1.153122467E1
9.855932542E0,9.231101677E-2,-9.832878985E0,2.031025533E0,1.004087124E1
9.865922542E0,4.126657829E-2,-8.249462927E0,4.868473613E-1,8.263919280E0
9.875912542E0,-1.456621818E-1,-6.004626791E0,-8.002282995E-1,6.059465793E0
9.885902542E0,-5.516263247E-3,-3.627176389E0,-1.637920587E0,3.979852112E0
9.895892542E0,1.907544471E-1,-1.245753973E0,-2.203705359E0,2.538623156E0
9.905881542E0,1.713978244E-1,1.107270856E0,-2.497592558E0,2.737406537E0
9.915871542E0,-3.622788638E-2,3.253235253E0,-2.672317302E0,4.210241303E0
9.925861542E0,-3.348317412E-1,5.349067377E0,-2.999598826E0,6.141842331E0
9.935851542E0,-4.996626308E-1,7.255079586E0,-3.245480091E0,7.963603679E0
9.945841542E0,-4.687563685E-1,8.837509219E0,-3.754455655E0,9.613388528E0
9.955831542E0,-3.482485429E-1,1.019101627E1,-4.460177747E0,1.112974731E1
9.965821542E0,-1.689163392E-1,1.127049998E1,-5.033624126E0,1.234463748E1
9.975811542E0,1.808929718E-1,1.189236891E1,-5.238553247E0,1.299629181E1
9.985800542E0,5.482502885E-1,1.239087445E1,-5.625936547E0,1.361930652E1
9.995790542E0,7.631086396E-1,1.265383309E1,-6.462994704E0,1.422927009E1
1.000578054E1,8.442376605E-1,1.250598975E1,-7.018918147E0,1.436585288E1
1.001577054E1,1.017592840E0,1.247208760E1,-7.208121182E0,1.444110367E1
1.002576054E1,1.320929139E0,1.242671203E1,-6.924901936E0,1.428713731E1
1.003575054E1,1.526650412E0,1.194085636E1,-6.347760701E0,1.360914318E1
1.004574054E1,1.723311716E0,1.115950112E1,-5.525148675E0,1.257105948E1
1.005573054E1,1.864947798E0,1.018568478E1,-4.332171671E0,1.122470115E1
1.006572054E1,2.193290884E0,9.360818063E0,-2.765269612E0,1.000410694E1
1.007570954E1,2.701666816E0,8.849258614E0,-1.353706145E0,9.350984009E0
1.008569954E1,3.174601605E0,8.738052174E0,-6.873744062E-1,9.322238718E0
1.009568954E1,3.269298139E0,8.886084963E0,-6.404648262E-1,9.490048023E0
1.010567954E1,2.782131812E0,9.008464848E0,-8.705273268E-1,9.468395543E0
1.011566954E1,2.024802049E0,8.890677366E0,-1.253902652E0,9.204142504E0
1.012565954E1,1.277703451E0,8.600975897E0,-1.546249986E0,8.831772275E0
1.013564954E1,6.760106349E-1,8.132336181E0,-1.422139910E0,8.283378783E0
1.014563954E1,3.429352511E-1,7.559200289E0,-8.669932696E-1,7.616481532E0
1.015562954E1,1.379472193E-1,7.010442023E0,-6.076075673E-2,7.012062369E0
1.016561854E1,-1.689316151E-1,6.708180150E0,4.350153029E-1,6.724392696E0
1.017560854E1,-4.882585868E-1,6.531285505E0,3.303232455E-1,6.557835027E0
1.018559854E1,-6.498402518E-1,6.549671490E0,5.170634329E-2,6.582033312E0
1.019558854E1,-2.979220694E-1,6.825485821E0,-6.206354561E-1,6.860116809E0
1.020557854E1,4.076392239E-1,6.979907278E0,-1.732621214E0,7.203280615E0
1.021556854E1,1.185108406E0,6.862795735E0,-3.251846247E0,7.686153215E0
1.022555854E1,1.801534159E0,6.570175336E0,-4.801506329E0,8.334698093E0
1.023554854E1,2.353698428E0,6.252320108E0,-5.220253217E0,8.478351648E0
1.024553754E1,2.762638657E0,5.547704310E0,-4.290884482E0,7.537962927E0
1.025552754E1,2.872307864E0,4.274015265E0,-1.584805942E0,5.387853823E0
1.026551754E1,2.545282449E0,2.341384192E0,3.106226896E0,4.648568404E0
1.027550754E1,1.528455447E0,-4.389329374E-2,7.437146094E0,7.592709971E0
1.028549754E1,1.720709851E-1,-2.170481772E0,8.607649325E0,8.878751401E0
1.029548754E1,-7.950055665E-1,-3.560211151E0,6.327988926E0,7.304148215E0
1.030547754E1,-1.840525732E0,-6.510085840E0,4.284986688E0,8.008112357E0
1.031546754E1,-4.643984971E0,-9.902988271E0,6.045695295E0,1.249744793E1
1.032545754E1,-8.978320697E0,-1.044321837E1,8.689926081E0,1.628452848E1
1.033544754E1,-1.236536188E1,-7.730203865E0,1.018721792E1,1.778869402E1
1.034543654E1,-1.211969228E1,-4.990485123E0,1.015683812E1,1.658171413E1
1.035542654E1,-1.077420820E1,-2.310795068E0,9.594227217E0,1.461069923E1
1.036541654E1,-9.949173088E0,-2.999387741E-2,8.880393283E0,1.333597877E1
1.037540654E1,-8.347609611E0,1.896762498E0,8.872998310E0,1.232924950E1
1.038539654E1,-6.571314374E0,2.718671688E0,9.599569234E0,1.194676014E1
1.039538654E1,-5.035513362E0,2.012770672E0,9.892642207E0,1.128148973E1
1.040537654E1,-3.566827276E0,1.051551569E-1,1.013196407E1,1.074197423E1
1.041536654E1,-7.286408383E-1,-1.698977505E0,1.057069937E1,1.073112889E1
1.042535654E1,3.282781819E-1,-1.887326261E0,1.094766702E1,1.111400829E1
1.043534554E1,-2.002037230E0,-2.400659171E0,1.185081158E1,1.225614346E1
1.044533554E1,-1.606970397E0,-3.436377064E0,4.964427592E0,6.247926256E0
1.045532554E1,1.395711665E0,-3.660390328E0,-6.604357574E0,7.678802470E0
1.046531554E1,1.719880131E0,-4.194653345E0,-9.918862292E0,1.090582108E1
1.047530554E1,1.937620210E0,-4.857749820E0,-8.993259748E0,1.040340455E1
1.048529554E1,2.244242644E0,-5.037848740E0,-9.485947309E0,1.097268159E1
1.049528554E1,2.632164472E0,-4.726872177E0,-1.025036901E1,1.159058563E1
1.050527554E1,2.733582088E0,-5.114989302E0,-9.890043705E0,1.146510144E1
1.051526454E1,2.183774832E0,-6.555484207E0,-8.792031330E0,1.118226545E1
1.052525454E1,1.242563439E0,-8.952624523E0,-7.205956542E0,1.155937972E1
1.053524454E1,3.606033441E-1,-1.323444290E1,-5.454106175E0,1.431879142E1
1.054523454E1,-5.251739596E-1,-1.859291084E1,-3.861298319E0,1.899688832E1
1.055522454E1,-1.466189325E0,-2.264127270E1,-2.960178652E0,2.288098770E1
1.056521454E1,-3.007563610E0,-2.450863247E1,-1.494079959E0,2.473763892E1
1.057520454E1,-5.398641826E0,-2.233176788E1,1.860959412E0,2.305030065E1
1.058519454E1,-6.598805643E0,-1.491598751E1,8.068961134E0,1.819722652E1
1.059518454E1,-5.986016273E0,-7.288060806E0,1.462029966E1,1.739831553E1
1.060517354E1,-5.836644471E0,-1.694277513E0,1.603148423E1,1.714483834E1
1.061516354E1,-5.299048541E0,1.965831563E0,1.316687715E1,1.432867974E1
1.062515354E1,-3.249799429E0,4.095064153E0,9.502176840E0,1.084537281E1
1.063514354E1,-1.264303679E0,5.328422028E0,5.561919476E0,7.805478420E0
1.064513354E1,-1.815386505E-1,5.797300896E0,8.283083832E-1,5.858988713E0
1.065512354E1,1.972650294E-1,5.991338409E0,-3.213230942E0,6.801463262E0
1.066511354E1,2.993012814E-1,6.514481776E0,-4.720239680E0,8.050386122E0
1.067510354E1,3.251380809E-1,7.223214015E0,-3.858650115E0,8.195713281E0
1.068509354E1,2.633647326E-1,8.189993820E0,-2.652831455E0,8.612948072E0
1.069508254E1,-6.158389851E-2,9.720773828E0,-1.109139626E0,9.784039406E0
1.070507254E1,-8.326256749E-1,1.115120392E1,2.484897083E-1,1.118500610E1
1.071506254E1,-1.374454405E0,1.162778474E1,7.850752401E-1,1.173502646E1
1.072505254E1,-1.084584682E0,1.156923306E1,4.258445299E-1,1.162776080E1
1.073504254E1,-5.626905723E-1,1.140102504E1,-7.511742532E-1,1.143959158E1
1.074503254E1,-2.164129796E-1,1.127420829E1,-2.161994539E0,1.148167355E1
1.075502254E1,6.623141170E-2,1.099146618E1,-2.902788230E0,1.136850451E1
1.076501254E1,3.370994376E-1,1.059923612E1,-3.042156615E0,1.103232338E1
1.077500254E1,6.563683757E-1,1.027118042E1,-2.743920550E0,1.065162273E1
1.078499154E1,1.217830960E0,1.009096339E1,-1.474071956E0,1.027051812E1
1.079498154E1,2.168109265E0,1.029429330E1,5.614361253E-1,1.053510241E1
1.080497154E1,2.372557891E0,1.057448953E1,6.409027096E-1,1.085631688E1
1.081496154E1,1.917819783E0,1.085862796E1,-6.430469567E-1,1.104542183E1
1.082495154E1,1.177162990E0,1.120290734E1,-1.466598630E0,1.135965480E1
1.083494154E1,9.934872553E-2,1.131874302E1,-1.550896769E0,1.142493302E1
1.084493154E1,-9.747828164E-1,1.096593723E1,-1.113952031E0,1.106539064E1
1.085492154E1,-1.657667219E0,1.050719977E1,-4.602596332E-1,1.064710978E1
1.086491154E1,-2.203452760E0,1.018260095E1,1.164098775E-1,1.041893073E1
1.087490054E1,-2.793589139E0,9.991053185E0,4.715937299E-1,1.038497399E1
1.088489054E1,-3.478917020E0,9.804338726E0,6.489988375E-1,1.042348891E1
1.089488054E1,-4.247888443E0,9.679033479E0,7.150063008E-1,1.059431354E1
1.090487054E1,-5.018835933E0,9.741765332E0,7.440722251E-1,1.098382217E1
1.091486054E1,-5.792855258E0,9.881477534E0,8.719468845E-1,1.148743059E1
1.092485054E1,-6.971792513E0,9.999212390E0,1.605420300E0,1.229501987E1
1.093484054E1,-8.531703349E0,9.641456348E0,2.236972070E0,1.306719888E1
1.094483054E1,-8.300557652E0,7.768677374E0,3.787392144E-1,1.137519445E1
1.095482054E1,-6.745927436E0,4.925748260E0,-2.043460660E0,8.599201379E0
1.096480954E1,-3.505473027E0,2.038550461E0,-4.355513172E0,5.951010344E0
1.097479954E1,-5.334397298E-1,-5.538482666E-2,-5.964130145E0,5.988194537E0
1.098478954E1,8.132110186E-2,-3.913442618E0,-5.880617287E0,7.064227199E0
1.099477954E1,-8.370238043E-1,-1.402335157E1,-1.462072300E0,1.412418683E1
1.100476954E1,-6.323572963E-1,-1.684199018E1,-5.970079687E0,1.787999890E1
1.101475954E1,4.543685634E-1,-1.966210931E1,-9.125196322E0,2.168119464E1
1.102474954E1,1.281010563E-1,-2.480528044E1,-3.203073744E0,2.501155790E1
1.103473954E1,-3.170805008E0,-2.333746091E1,9.153319091E0,2.526804971E1
1.104472954E1,-3.122083960E0,-1.652459162E1,5.375834177E0,1.765528617E1
1.105471854E1,-5.243209385E0,-1.487123526E1,9.064790784E-1,1.579451130E1
1.106470854E1,-8.499324392E0,-1.496238166E1,-4.403976649E0,1.776249955E1
1.107469854E1,-1.012932697E1,-1.450952650E1,-8.480674113E0,1.962272809E1
1.108468854E1,-1.023843835E1,-1.374446277E1,-9.011926399E0,1.936364362E1
1.109467854E1,-9.061599081E0,-1.330233726E1,-6.669704887E0,1.742267826E1
1.110466854E1,-6.850680889E0,-1.413314591E1,-6.131308472E-1,1.571793789E1
1.111465854E1,-5.190603740E0,-1.807446630E1,5.484060291E0,1.958835410E1
1.112464854E1,-3.690238609E0,-2.392996629E1,1.130425596E1,2.672166444E1
1.113463854E1,-2.585290852E-1,-2.729458281E1,1.305191621E1,3.025580283E1
1.114462854E1,4.342037386E0,-2.521253901E1,5.186479699E0,2.610411813E1
1.115461754E1,7.440083150E0,-2.204264879E1,2.238998276E-1,2.326549665E1
1.116460754E1,1.023888157E1,-1.844602996E1,3.162968277E0,2.133295773E1
1.117459754E1,1.209419374E1,-1.429039391E1,5.545187668E0,1.952521413E1
1.118458754E1,1.156389455E1,-1.043379968E1,2.794789865E0,1.582399075E1
1.119457754E1,9.363880835E0,-8.563744336E0,9.074503009E-1,1.272177061E1
1.120456754E1,7.690598334E0,-8.855730312E0,1.337936351E0,1.180505552E1
1.121455754E1,5.526622174E0,-9.388178939E0,6.347659837E-1,1.091257918E1
1.122454754E1,3.322098497E0,-7.836227918E0,1.010305163E0,8.571086449E0
1.123453754E1,1.085024832E0,-4.948322605E0,6.554766753E-1,5.108113660E0
1.124452654E1,-7.283401452E-1,-2.047770935E0,-7.644143960E-1,2.303947599E0
1.125451654E1,-1.516170009E0,9.603174627E-2,-2.246206723E0,2.711722374E0
1.126450654E1,-1.435833359E0,2.155352102E0,-3.359935829E0,4.242208021E0
1.127449654E1,-1.176494434E0,4.579366221E0,-4.308335497E0,6.396599792E0
1.128448654E1,-9.811461219E-1,7.132821323E0,-4.914974180E0,8.717611997E0
1.129447654E1,-8.104961564E-1,9.417094590E0,-5.329656376E0,1.085098206E1
1.130446654E1,-6.811020979E-1,1.137085809E1,-5.348539374E0,1.258440253E1
1.131445654E1,-5.709412859E-1,1.273104908E1,-5.415972388E0,1.384696146E1
1.132444654E1,-5.006954683E-1,1.360279059E1,-5.609403545E0,1.472250032E1
1.133443554E1,-4.675575431E-1,1.397432384E1,-5.698888164E0,1.509892920E1
1.134442554E1,-5.786820493E-1,1.385027165E1,-5.502628124E0,1.491455041E1
1.135441554E1,-9.366988776E-1,1.385103880E1,-5.099241580E0,1.478955528E1
1.136440554E1,-1.346455013E0,1.407666765E1,-4.708125126E0,1.490409191E1
1.137439554E1,-1.794929144E0,1.423679599E1,-3.869367476E0,1.486203672E1
1.138438554E1,-2.201117528E0,1.378678258E1,-2.548891350E0,1.419215063E1
1.139437554E1,-2.431428681E0,1.297685901E1,-1.254166654E0,1.326211330E1
1.140436554E1,-2.482573984E0,1.219752340E1,-2.319476429E-1,1.244976106E1
1.141435554E1,-2.310168392E0,1.157254843E1,3.978889918E-1,1.180758531E1
1.142434454E1,-1.886208858E0,1.101370314E1,4.413098305E-1,1.118276330E1
1.143433454E1,-1.322805657E0,1.057410712E1,-1.064007600E-1,1.065705763E1
1.144432454E1,-7.478239448E-1,1.013580452E1,-5.305096900E-1,1.017719089E1
1.145431454E1,3.816097587E-2,9.677922508E0,-4.547728984E-1,9.688676830E0
1.146430454E1,1.128656609E0,9.109440415E0,-3.576424603E-1,9.186058923E0
1.147429454E1,2.076269095E0,8.612827619E0,-4.015037405E-1,8.868646920E0
1.148428454E1,2.636799560E0,8.335126390E0,-5.446605366E-1,8.759206526E0
1.149427454E1,2.946545869E0,8.147035496E0,-6.655172217E-1,8.689029469E0
1.150426454E1,3.063136133E0,8.085191250E0,-8.557464427E-1,8.688234717E0
1.151425454E1,3.059989746E0,8.077241961E0,-1.049429029E0,8.700958351E0
1.152424354E1,3.040805031E0,8.134392647E0,-1.256509341E0,8.774602822E0
1.153423354E1,3.104324797E0,8.287110225E0,-1.518434635E0,8.978790123E0
1.154422354E1,3.278509550E0,8.512731473E0,-1.689633508E0,9.277396369E0
1.155421354E1,3.458417266E0,8.847047782E0,-1.651719577E0,9.641529028E0
1.156420354E1,3.492867891E0,9.391080912E0,-1.405320395E0,1.011768018E1
1.157419354E1,3.230659738E0,1.017930780E1,-1.000107765E0,1.072640132E1
1.158418354E1,2.381123769E0,1.082078478E1,-6.051610923E-1,1.109618645E1
1.159417354E1,1.110613855E0,1.062884408E1,-2.941981240E-1,1.069075966E1
1.160416254E1,1.154745423E-1,1.021599557E1,6.468599260E-2,1.021685295E1
1.161415217E1,-5.127183670E-1,1.005787517E1,4.334488338E-1,1.008025847E1
1.162414217E1,-9.366760004E-1,1.006744121E1,6.551518625E-1,1.013212507E1
1.163413217E1,-1.349940538E0,1.008671363E1,8.426556963E-1,1.021147394E1
1.164412217E1,-1.786292222E0,1.016562298E1,8.407053575E-1,1.035555483E1
1.165411217E1,-2.117086899E0,1.025958306E1,-3.634044528E-3,1.047573934E1
1.166410217E1,-2.059934606E0,1.000991864E1,-1.740086355E0,1.036675949E1
1.167409217E1,-1.273868847E0,9.177709581E0,-3.565810445E0,9.928146812E0
1.168408217E1,-1.164801903E0,8.211071278E0,-4.254634668E0,9.320964069E0
1.169407217E1,-3.780308535E0,6.614507171E0,-4.394134616E0,8.794933584E0
1.170406117E1,-1.745204861E0,3.944495426E0,-4.144851440E0,5.982021200E0
1.171405117E1,1.113465396E0,1.863293620E0,-2.583206905E0,3.374111174E0
1.172404117E1,-2.917538124E0,-5.058818024E0,1.738783156E0,6.093195826E0
1.173403117E1,-3.780408230E0,-1.200896941E1,5.650028245E0,1.379962506E1
1.174402117E1,-1.403477937E0,-1.922203967E1,7.003963308E0,2.050639075E1
1.175401117E1,-8.246910033E-1,-2.534939893E1,5.026810366E0,2.585615911E1
1.176400117E1,-1.530734692E0,-2.636515853E1,-2.573925619E0,2.653469099E1
1.177399117E1,-3.998487446E0,-2.954545912E1,-2.403092490E0,2.991148458E1
1.178398117E1,-3.945682119E0,-3.272849387E1,4.556093134E0,3.327883266E1
1.179397017E1,-6.366025064E0,-2.878665659E1,2.777961578E0,2.961274967E1
1.180396017E1,-9.743625916E0,-2.635017094E1,9.223016732E0,2.956913581E1
1.181395017E1,-4.408947075E0,-2.407882470E1,1.459092559E1,2.849778453E1
1.182394017E1,7.605499712E-1,-2.256578047E1,1.307849766E1,2.609291063E1
1.183393017E1,3.474930388E0,-2.071990570E1,9.219020745E0,2.294297228E1
1.184392017E1,5.929941475E0,-1.857767768E1,7.830012327E0,2.101436192E1
1.185391017E1,7.456961723E0,-1.719162561E1,7.391314448E0,2.014422494E1
1.186390017E1,7.510552039E0,-1.526397871E1,6.259700464E0,1.812681130E1
1.187389017E1,7.391251298E0,-1.349452939E1,4.970277146E0,1.616900040E1
1.188388017E1,7.302481794E0,-1.259932769E1,4.762195206E0,1.532148171E1
1.189386917E1,6.964909755E0,-1.196370728E1,4.440660911E0,1.453821616E1
1.190385917E1,6.547672911E0,-1.113368683E1,3.526457514E0,1.338905918E1
1.191384917E1,5.892844985E0,-9.893601151E0,2.624612208E0,1.181090830E1
1.192383917E1,5.152590991E0,-8.657060051E0,1.506344494E0,1.018641038E1
1.193382917E1,4.420972751E0,-7.445549712E0,2.095156771E-1,8.661703493E0
1.194381917E1,3.732350256E0,-6.039078586E0,-7.034542492E-1,7.134126189E0
1.195380917E1,3.022325491E0,-4.435908294E0,-9.010901383E-1,5.442765584E0
1.196379917E1,2.512425190E0,-2.782871193E0,-9.119785309E-1,3.858543410E0
1.197378917E1,2.225052813E0,-1.368804533E0,-1.053378239E0,2.816751956E0
1.198377917E1,1.972641669E0,-1.083424741E-1,-1.182814836E0,2.302629841E0
1.199376817E1,1.612722449E0,1.231095588E0,-1.285507438E0,2.401874147E0
1.200375817E1,1.116705338E0,2.656276635E0,-1.413814060E0,3.209627170E0
1.201374817E1,6.151355651E-1,4.091040099E0,-1.529065019E0,4.410560133E0
1.202373817E1,2.870194973E-1,5.461711648E0,-1.587446544E0,5.694968029E0
1.203372817E1,7.789741091E-2,6.745235710E0,-1.760671770E0,6.971673965E0
1.204371817E1,-1.310466278E-1,7.925931222E0,-1.817982962E0,8.132811384E0
1.205370817E1,-3.148075857E-1,8.973514870E0,-1.987456029E0,9.196360933E0
1.206369817E1,-5.369416273E-1,9.783898029E0,-2.368829560E0,1.008088887E1
1.207368817E1,-7.347519095E-1,1.017922243E1,-2.607528690E0,1.053354810E1
1.208367717E1,-9.105866743E-1,1.040528047E1,-2.987268510E0,1.086383003E1
1.209366717E1,-1.096003710E0,1.067154747E1,-3.585057140E0,1.131087018E1
1.210365717E1,-1.193917383E0,1.091456944E1,-4.180577051E0,1.174863776E1
1.211364717E1,-1.084759660E0,1.099979612E1,-4.573243310E0,1.196188834E1
1.212363717E1,-9.040649092E-1,1.098845252E1,-4.657117817E0,1.196879979E1
1.213362717E1,-6.226723337E-1,1.097293167E1,-4.726493277E0,1.196380746E1
1.214361717E1,-3.339998285E-1,1.102956079E1,-4.852395524E0,1.205439792E1
1.215360717E1,-8.736529559E-2,1.119977323E1,-5.456666086E0,1.245864190E1
1.216359717E1,3.531124762E-1,1.118001432E1,-5.635632400E0,1.252508528E1
1.217358717E1,3.719646303E-1,1.103625000E1,-5.141288908E0,1.218072343E1
1.218357617E1,2.071231426E-1,1.121254823E1,-5.810512680E0,1.263036798E1
1.219356617E1,4.488808054E-1,1.116035364E1,-5.823874152E0,1.259652720E1
1.220355617E1,7.245605050E-1,1.088560234E1,-5.271808117E0,1.211665329E1
1.221354617E1,8.620015016E-1,1.041650361E1,-4.416448175E0,1.134687660E1
1.222353617E1,8.191724011E-1,9.835540638E0,-3.623755475E0,1.051382456E1
1.223352617E1,7.013271783E-1,9.227783967E0,-3.094916334E0,9.758194703E0
1.224351617E1,4.438865523E-1,8.765614194E0,-2.690791287E0,9.180053661E0
1.225350617E1,1.105869278E-1,8.432316470E0,-2.189212305E0,8.712567993E0
1.226349617E1,-1.635036448E-1,8.153394928E0,-1.384989772E0,8.271806270E0
1.227348517E1,-3.731637481E-1,7.940204276E0,-5.209962702E-1,7.966023615E0
1.228347517E1,-4.592677993E-1,7.836305101E0,4.965477459E-1,7.865441133E0
1.229346517E1,-3.779584649E-1,7.796835811E0,1.718736270E0,7.992969137E0
1.230345517E1,5.551697373E-2,7.909480081E0,3.067808935E0,8.483773273E0
1.231344517E1,9.200073427E-1,8.227625331E0,4.309857527E0,9.333547235E0
1.232343517E1,1.794062002E0,8.214100136E0,4.488396410E0,9.530781807E0
1.233342517E1,2.367297589E0,7.641644860E0,3.337376102E0,8.668155126E0
1.234341517E1,2.645676802E0,6.849653533E0,2.095179575E0,7.635910995E0
1.235340517E1,2.659594053E0,5.875174699E0,1.547511815E0,6.632187504E0
1.236339417E1,2.248124318E0,4.465226233E0,1.709248578E0,5.283354896E0
1.237338417E1,1.652525470E0,2.509221500E0,2.148280918E0,3.693527293E0
1.238337417E1,1.015048278E0,4.304310858E-2,2.521332253E0,2.718325228E0
1.239336417E1,1.187095875E-1,-3.339505073E0,2.833792255E0,4.381411261E0
1.240335417E1,-1.272659351E0,-8.362912359E0,3.149818473E0,9.026589686E0
1.241334417E1,-3.917067307E0,-1.651248438E1,3.879157469E0,1.740842955E1
1.242333417E1,-9.438871375E0,-2.815523682E1,4.502016329E0,3.003461011E1
1.243332417E1,-1.830319768E1,-3.890672274E1,4.255726343E0,4.320707496E1
1.244331417E1,-2.900661481E1,-4.175571542E1,1.119560534E1,5.206020603E1
1.245330417E1,-3.377065481E1,-3.323598307E1,2.397622478E1,5.310317365E1
1.246329317E1,-2.134432752E1,-1.994725697E1,2.611669396E1,3.918615931E1
1.247328317E1,-5.189774605E0,-1.509689452E1,1.583546334E1,2.248581517E1
1.248327317E1,8.509365231E-1,-1.353669600E1,7.665281060E0,1.557956242E1
1.249326317E1,2.480873614E0,-1.346445365E1,4.997548560E0,1.457469511E1
1.250325317E1,3.976921453E0,-1.681891707E1,5.047193175E0,1.800461148E1
1.251324317E1,4.637046373E0,-1.928913998E1,4.510955552E0,2.034506919E1
1.252323317E1,4.987378498E0,-1.912725981E1,3.735401918E0,2.011664087E1
1.253322317E1,4.625141734E0,-1.768021427E1,2.135440578E0,1.839951139E1
1.254321317E1,3.584487914E0,-1.543142542E1,3.618802299E-1,1.584640027E1
1.255320317E1,2.453316271E0,-1.304068488E1,8.871278644E-2,1.326974351E1
1.256319217E1,2.199190432E-1,-1.122631725E1,1.470013404E-1,1.122943333E1
1.257318217E1,-2.657867078E0,-9.467221016E0,9.411333328E-1,9.878171041E0
1.258317217E1,-4.860206527E0,-6.575008644E0,2.195716601E0,8.466021353E0
1.259316217E1,-5.776371372E0,-2.848757034E0,2.934193041E0,7.077525816E0
1.260315217E1,-5.750471131E0,7.400072408E-1,2.120709688E0,6.173567730E0
1.261314192E1,-5.162172239E0,3.860701903E0,3.721915754E-1,6.456900802E0
1.262313192E1,-4.282476186E0,6.427559992E0,-1.205165598E0,7.817004148E0
1.263312192E1,-3.302238721E0,8.264718313E0,-2.104452674E0,9.145439870E0
1.264311192E1,-2.439305466E0,9.543410820E0,-2.328050786E0,1.012159680E1
1.265310192E1,-1.858473322E0,1.058011105E1,-2.433406502E0,1.101426984E1
1.266309092E1,-1.558620210E0,1.148797080E1,-2.834478718E0,1.193469897E1
1.267308092E1,-1.462911083E0,1.233029028E1,-3.590754082E0,1.292554378E1
1.268307092E1,-1.276679604E0,1.293288444E1,-3.868547112E0,1.355931664E1
1.269306092E1,-1.145359180E0,1.301375494E1,-3.454563074E0,1.351309259E1
1.270305092E1,-1.061313787E0,1.285245950E1,-3.177903820E0,1.328198686E1
1.271304092E1,-1.130730324E0,1.278688415E1,-2.782783484E0,1.313494732E1
1.272303092E1,-1.586347852E0,1.274437372E1,-2.397139147E0,1.306452590E1
1.273302092E1,-2.150023827E0,1.228838679E1,-2.052007828E0,1.264269704E1
1.274301092E1,-2.312965846E0,1.171686356E1,-1.619893913E0,1.205233417E1
1.275299992E1,-2.397937877E0,1.126762666E1,-1.331260146E0,1.159662754E1
1.276298992E1,-2.494130129E0,1.088555439E1,-1.162832268E0,1.122800776E1
1.277297992E1,-2.469870031E0,1.053988922E1,-9.089056729E-1,1.086350000E1
1.278296992E1,-1.574151730E0,1.021855782E1,-4.016885126E-1,1.034689477E1
1.279295992E1,-1.451983332E-2,1.008776847E1,5.076225185E-1,1.010054277E1
1.280294992E1,8.302943169E-1,9.874752066E0,1.249602464E0,9.988074055E0
1.281293992E1,9.817794485E-1,9.560785237E0,1.411444330E0,9.714148461E0
1.282292992E1,9.033511104E-1,9.267920424E0,6.272670758E-1,9.332944670E0
1.283291992E1,8.511644183E-1,8.996003847E0,-4.145044398E-1,9.045682948E0
1.284290992E1,8.603892050E-1,8.749810925E0,-1.173574919E0,8.869990918E0
1.285289892E1,9.304890615E-1,8.552627025E0,-1.660909354E0,8.761955193E0
1.286288892E1,9.631805518E-1,8.415900997E0,-1.864514519E0,8.673610595E0
1.287287892E1,9.098599385E-1,8.305950539E0,-1.940858105E0,8.578087761E0
1.288286892E1,7.622898102E-1,8.141048532E0,-1.647629157E0,8.341009459E0
1.289285892E1,4.715116861E-1,7.988030992E0,-8.916186722E-1,8.051456157E0
1.290284892E1,6.265185591E-2,8.251762052E0,-4.097290188E-1,8.262165581E0
1.291283892E1,-1.589426338E-1,8.867874979E0,-2.914354607E-1,8.874086096E0
1.292282892E1,-2.539223198E-1,9.437868578E0,-2.592655420E-1,9.444842956E0
1.293281892E1,-3.793172482E-1,9.954332671E0,-3.002808362E-1,9.966081932E0
1.294280892E1,-4.710814407E-1,1.047321693E1,-6.469154745E-1,1.050374648E1
1.295279792E1,-5.326377842E-1,1.094774420E1,-1.189416781E0,1.102504052E1
1.296278792E1,-7.461012089E-1,1.139429022E1,-1.462022599E0,1.151190804E1
1.297277792E1,-1.086755827E0,1.151192567E1,-1.623558363E0,1.167653256E1
1.298276792E1,-1.444364300E0,1.135179382E1,-2.341782533E0,1.168046903E1
1.299275792E1,-1.907481906E0,1.080201756E1,-3.055530075E0,1.138676137E1
1.300274792E1,-2.061827642E0,8.766312937E0,-2.762393659E0,9.419670613E0
1.301273792E1,-1.260641861E0,5.151184736E0,-1.651387894E0,5.554368016E0
1.302272792E1,-2.636762722E0,-3.199245572E-2,1.835125244E-1,2.643334640E0
1.303271792E1,-2.216434748E0,-4.949939945E0,2.935004050E-1,5.431448328E0
1.304270792E1,-5.731598657E-1,-8.541482817E0,-2.225289771E0,8.845188269E0
1.305269692E1,-2.758289206E0,-1.636932817E1,-3.867839599E0,1.704474251E1
1.306268692E1,-7.306632732E0,-2.877622516E1,-5.726340841E0,3.023655066E1
1.307267692E1,-1.223329082E1,-3.927326364E1,-8.561970876E0,4.201606819E1
1.308266692E1,-1.763338042E1,-4.794808052E1,-8.448623185E0,5.178159677E1
1.309265692E1,-1.741391102E1,-4.604447034E1,-3.530280424E0,4.935382889E1
1.310264692E1,-1.004858160E1,-3.325319962E1,8.509557604E0,3.576537218E1
1.311263692E1,-3.040947996E0,-2.329751975E1,1.779148211E1,2.947131871E1
1.312262692E1,-1.415776386E0,-2.196585146E1,3.624906499E0,2.230791340E1
1.313261692E1,-1.374402657E0,-2.301835730E1,-3.289519565E0,2.329280349E1
1.314260692E1,-1.994670908E0,-2.375349498E1,-5.520046980E0,2.446790049E1
1.315259592E1,-3.253521182E0,-2.285002532E1,-6.993610813E0,2.411679185E1
1.316258592E1,-4.093388926E0,-2.191651968E1,-6.059434497E0,2.310425099E1
1.317257592E1,-4.499005598E0,-2.034657268E1,-5.280207642E0,2.149661982E1
1.318256592E1,-4.448675981E0,-1.711844537E1,-5.025874227E0,1.838725922E1
1.319255592E1,-4.240882017E0,-1.356199573E1,-4.468076751E0,1.489552008E1
1.320254592E1,-3.847892115E0,-9.995647928E0,-3.573270907E0,1.129103698E1
1.321253592E1,-3.250129797E0,-6.268487075E0,-2.276853735E0,7.418984893E0
1.322252592E1,-2.616661749E0,-2.796378261E0,-8.988475849E-1,3.933773896E0
1.323251592E1,-2.065310243E0,2.082789910E-1,3.246004294E-1,2.101012132E0
1.324250592E1,-1.553112132E0,3.057326632E0,1.673826876E0,3.815900921E0
1.325249492E1,-1.131469704E0,6.328324556E0,4.301787200E0,7.735198026E0
1.326248492E1,-1.457073369E0,9.314129800E0,6.503624082E0,1.145308705E1
1.327247492E1,-2.599849834E0,1.081935338E1,4.292173793E0,1.192645725E1
1.328246492E1,-3.054186677E0,1.108818263E1,8.149293691E-1,1.152995924E1
1.329245492E1,-2.808438143E0,1.156403489E1,-2.572850901E-1,1.190295859E1
1.330244492E1,-2.345299195E0,1.266850493E1,-9.443245970E-1,1.291832785E1
1.331243492E1,-2.169362615E0,1.357040754E1,-1.156112502E0,1.379125415E1
1.332242492E1,-2.814447911E0,1.387286997E1,-6.993930656E-1,1.417274811E1
1.333241492E1,-3.860593144E0,1.385164107E1,-9.586344878E-1,1.441149263E1
1.334240492E1,-5.451816990E0,1.336330150E1,-1.567292946E0,1.451745648E1
1.335239392E1,-6.679417112E0,1.233990544E1,-2.377879149E0,1.423173175E1
1.336238392E1,-7.137865131E0,1.142360699E1,-4.029184744E0,1.405995181E1
1.337237392E1,-6.701093910E0,1.059797429E1,-5.290647261E0,1.360928606E1
1.338236392E1,-5.983637041E0,1.020198447E1,-5.461521614E0,1.302737954E1
1.339235392E1,-5.037734719E0,1.006636766E1,-5.465932168E0,1.251347048E1
1.340234392E1,-3.740465607E0,9.890774606E0,-5.106502068E0,1.174286458E1
1.341233392E1,-2.540946153E0,9.789402598E0,-4.355811380E0,1.101189826E1
1.342232392E1,-1.508625785E0,9.599704304E0,-3.427337853E0,1.030421852E1
1.343231392E1,-6.087528907E-1,9.434128114E0,-2.677774508E0,9.825671970E0
1.344230392E1,1.157772819E-1,9.295156170E0,-2.144501862E0,9.540032539E0
1.345229292E1,7.569178270E-1,9.169087862E0,-1.651666514E0,9.347357867E0
1.346228292E1,1.373791038E0,8.963483387E0,-9.507191120E-1,9.117850793E0
1.347227292E1,2.107938053E0,8.655657889E0,2.600401519E-1,8.912431610E0
1.348226292E1,2.795883294E0,8.345737333E0,1.731072872E0,8.970223426E0
1.349225292E1,3.342032532E0,8.006102981E0,3.035339347E0,9.191308467E0
1.350224292E1,3.682446902E0,7.717568032E0,3.464715010E0,9.226349311E0
1.351223292E1,3.694177294E0,7.545511957E0,2.747966239E0,8.839288151E0
1.352222292E1,3.606802350E0,7.445460835E0,1.670353776E0,8.440023221E0
1.353221292E1,3.438658648E0,7.425004935E0,6.455582627E-1,8.208033690E0
1.354220292E1,3.020165237E0,7.778729323E0,-1.732161623E-1,8.346258549E0
1.355219192E1,2.143186677E0,8.516698809E0,-7.540322261E-1,8.814531884E0
1.356218192E1,1.314546026E0,9.307173368E0,-1.077582788E0,9.461114734E0
1.357217192E1,8.429048607E-1,9.880249618E0,-1.241947435E0,9.993610687E0
1.358216192E1,6.655470425E-1,1.035144749E1,-1.440522826E0,1.047236955E1
1.359215192E1,6.875921419E-1,1.078962146E1,-1.681767249E0,1.094152893E1
1.360214192E1,7.638922396E-1,1.108700500E1,-1.937306360E0,1.128088504E1
1.361213508E1,8.733255118E-1,1.124212812E1,-2.157838338E0,1.148061011E1
1.362212508E1,9.846040191E-1,1.126787458E1,-2.224802844E0,1.152754052E1
1.363211508E1,1.045419740E0,1.106618891E1,-2.128635589E0,1.131744357E1
1.364210408E1,1.016072710E0,1.042057561E1,-1.915026130E0,1.064368944E1
1.365209408E1,9.277373618E-1,9.766096181E0,-1.700391946E0,9.956337881E0
1.366208408E1,8.411827826E-1,9.120316236E0,-1.679964699E0,9.311822491E0
1.367207408E1,7.763263437E-1,7.998806825E0,-1.869462579E0,8.250968643E0
1.368206408E1,4.473641838E-1,5.748412326E0,-4.836699843E-1,5.786044904E0
1.369205408E1,-6.107752964E-1,1.512835488E0,3.681095903E0,4.026435734E0
1.370204408E1,-2.250638328E0,-4.262337790E0,9.177611348E0,1.036636129E1
1.371203408E1,-3.220321276E0,-1.240669702E1,1.216808735E1,1.767367957E1
1.372202408E1,-1.161749072E0,-1.892828140E1,2.789062809E0,1.916789945E1
1.373201408E1,-2.667633682E0,-2.975683597E1,-4.626812868E0,3.023231638E1
1.374200408E1,-1.609325422E1,-5.544877181E1,-8.476053643E-1,5.774320360E1
1.375199308E1,-2.722977227E1,-6.833156784E1,1.441672651E1,7.495669192E1
1.376198308E1,-2.233337703E1,-4.630902645E1,3.628733619E1,6.292913815E1
1.377197308E1,-1.109968527E1,-2.119308578E1,3.377018236E1,4.138568732E1
1.378196308E1,-4.194610953E0,-1.686083927E1,1.600352869E1,2.362193033E1
1.379195308E1,5.878860784E-1,-1.839777990E1,1.371663120E1,2.295582468E1
1.380194308E1,4.603786825E0,-1.964835666E1,1.448641363E1,2.484167773E1
1.381193308E1,6.388466678E0,-1.995198619E1,1.173634999E1,2.401324990E1
1.382192308E1,6.613163481E0,-2.016158782E1,8.927216032E0,2.301996396E1
1.383191308E1,4.507914416E0,-1.975881992E1,7.551022373E0,2.162753328E1
1.384190308E1,2.967131576E-1,-1.803093378E1,5.634162995E0,1.889302528E1
1.385189208E1,-3.167689903E0,-1.567276223E1,4.183771092E0,1.652796647E1
1.386188208E1,-5.298150408E0,-1.330542926E1,3.425999426E0,1.472556680E1
1.387187208E1,-6.324643149E0,-1.075148007E1,2.363248100E0,1.269568337E1
1.388186208E1,-6.396098464E0,-7.984420921E0,8.608153939E-1,1.026655035E1
1.389185208E1,-5.807280339E0,-5.077389366E0,-8.658704580E-1,7.762352695E0
1.390184208E1,-5.051941699E0,-1.719597126E0,-2.744088073E0,6.000762331E0
1.391183208E1,-4.116662306E0,1.644384391E0,-4.684781287E0,6.449657687E0
1.392182208E1,-3.058094956E0,4.720301660E0,-6.590984992E0,8.664541285E0
1.393181208E1,-2.308229894E0,7.246329812E0,-8.607171607E0,1.148567038E1
1.394180208E1,-1.842808777E0,9.358652839E0,-1.064269496E1,1.429151088E1
1.395179208E1,-1.575347778E0,1.134820831E1,-1.222205949E1,1.675238164E1
1.396178108E1,-1.481208191E0,1.355955276E1,-1.396264812E1,1.951950285E1
1.397177108E1,-1.005653849E0,1.588807776E1,-1.726035612E1,2.348110406E1
1.398176108E1,-7.088890900E-1,1.699893296E1,-1.874665285E1,2.531606681E1
1.399175108E1,1.549741651E-1,1.634754963E1,-1.604292840E1,2.290506380E1
1.400174108E1,1.424430703E0,1.482839739E1,-1.183966328E1,1.902861000E1
1.401173108E1,2.741323217E0,1.326319833E1,-8.151065397E0,1.580718666E1
1.402172108E1,3.861909060E0,1.186388361E1,-5.439693373E0,1.361089049E1
1.403171108E1,4.465588176E0,1.071010751E1,-3.516310841E0,1.212486382E1
1.404170108E1,4.707631329E0,9.594119044E0,-2.111548855E0,1.089346371E1
1.405169108E1,4.570401270E0,8.702948415E0,-1.427832760E0,9.933206193E0
1.406168008E1,4.370767388E0,7.987600052E0,-4.545119664E-1,9.116575194E0
1.407167008E1,4.723551543E0,7.173385797E0,3.473657449E0,9.264755747E0
1.408166008E1,4.575969574E0,6.623573279E0,8.589976115E0,1.177280384E1
1.409165008E1,2.812528855E0,7.126451951E0,7.606617699E0,1.079616917E1
1.410164008E1,9.136815324E-1,7.526247135E0,5.158006098E0,9.169745732E0
1.411163008E1,2.184008136E-1,7.740078642E0,2.997195620E0,8.302993309E0
1.412162008E1,5.428031686E-1,7.492101735E0,4.432949603E-1,7.524807912E0
1.413161008E1,1.237530448E0,6.770561755E0,-3.785469872E-1,6.893133244E0
1.414160008E1,2.136041380E0,6.298625379E0,-8.415704530E-1,6.703998453E0
1.415159008E1,2.829950634E0,6.096890591E0,-1.713355808E0,6.936590200E0
1.416157908E1,3.326175468E0,5.959597968E0,-2.655255711E0,7.323293936E0
1.417156908E1,4.040273404E0,6.645340124E0,-3.841886440E0,8.674355650E0
1.418155908E1,4.849460222E0,7.898038834E0,-5.040536120E0,1.055003726E1
1.419154908E1,5.806419044E0,9.255518480E0,-6.024630116E0,1.247699052E1
1.420153908E1,5.439242553E0,8.623960133E0,-6.487711469E0,1.208505060E1
1.421152908E1,3.781735255E0,6.799529446E0,-5.464551641E0,9.507704606E0
1.422151908E1,2.315494767E0,5.383402812E0,-2.838510958E0,6.511504152E0
1.423150908E1,1.421858367E0,4.660875238E0,4.040344155E-1,4.889650602E0
1.424149908E1,1.263697616E0,3.847738041E0,1.168715737E0,4.215200608E0
1.425148908E1,1.683363685E0,2.120449487E0,8.144095516E-1,2.827239332E0
1.426147808E1,-7.136819065E-2,-7.101098424E-1,1.619630789E0,1.769902059E0
1.427146808E1,-3.830369179E0,-4.203718868E0,2.726355515E0,6.306821288E0
1.428145808E1,-7.199167340E0,-8.933492433E0,2.875012786E0,1.182797514E1
1.429144808E1,-1.122043963E1,-1.251723278E1,1.448441271E0,1.687238466E1
1.430143808E1,-1.528932405E1,-1.276128738E1,3.783136833E-1,1.991876017E1
1.431142808E1,-1.743312263E1,-1.128696691E1,5.675237346E-1,2.077574235E1
1.432141808E1,-1.823544716E1,-8.981455974E0,1.186272587E0,2.036185962E1
1.433140808E1,-1.855616460E1,-5.418086742E0,9.865822783E-1,1.935614252E1
1.434139808E1,-1.724574042E1,5.904869199E-1,8.675215656E-1,1.727763963E1
1.435138808E1,-1.362655016E1,7.112004066E0,1.559588655E0,1.544978278E1
1.436137808E1,-9.753703592E0,1.034962550E1,2.829987472E0,1.450028658E1
1.437136708E1,-7.506039743E0,9.674203679E0,4.607688380E0,1.308287589E1
1.438135708E1,-7.020655940E0,8.172636945E0,6.507096158E0,1.258665583E1
1.439134708E1,-8.965267957E0,5.879169517E0,5.670393512E0,1.212823261E1
1.440133708E1,-1.147218215E1,1.224999865E0,1.814271149E-1,1.153882592E1
1.441132708E1,-1.189868156E1,-3.084683999E0,-6.650114375E0,1.397561875E1
1.442131708E1,-9.070567541E0,-4.046197802E0,-1.110510915E1,1.489866979E1
1.443130708E1,-3.593359601E0,-3.267266232E-1,-1.278992938E1,1.328914132E1
1.444129708E1,3.123559213E-1,4.330289453E0,-1.142298952E1,1.222021532E1
1.445128708E1,4.016307421E0,6.931139746E0,-8.043311738E0,1.135192879E1
1.446127708E1,8.236756927E0,7.837354091E0,-2.907743745E0,1.173555527E1
1.447126608E1,8.503110464E0,6.934626440E0,-1.430375129E0,1.106516626E1
1.448125608E1,5.122775454E0,4.951020511E0,-6.742441911E0,9.808973207E0
1.449124608E1,3.473131492E0,2.549170847E0,-6.458880018E0,7.763893705E0
1.450123608E1,9.165294188E-1,-1.871906569E0,-3.488024935E-1,2.113225865E0
1.451122608E1,3.510601035E-1,-5.431322499E0,-3.239436409E-1,5.452288214E0
1.452121608E1,1.446032218E0,-8.126322320E0,-2.699669407E0,8.684258087E0
1.453120608E1,2.070474504E0,-1.328097270E1,1.149795316E0,1.349048293E1
1.454119608E1,3.052291009E0,-1.825224153E1,6.897755068E0,1.974942598E1
1.455118608E1,4.555221021E0,-2.028597447E1,8.177116497E0,2.234135254E1
1.456117608E1,4.048640769E0,-1.946769173E1,3.479024901E0,2.018628563E1
1.457116508E1,4.400729105E0,-1.715258726E1,1.431805796E0,1.776591496E1
1.458115508E1,5.041980382E0,-1.387895107E1,-4.691378993E-1,1.477386000E1
1.459114508E1,4.791659326E0,-1.155266439E1,-2.586946784E0,1.277170103E1
1.460113508E1,3.599923101E0,-1.021596400E1,-5.123436189E0,1.198227712E1
1.461112254E1,2.397047346E0,-9.278659421E0,-5.773792750E0,1.118820984E1
1.462111254E1,8.727430560E-1,-9.974596782E0,-5.117743340E0,1.124480139E1
1.463110254E1,-1.390311031E0,-1.182382434E1,-4.161442330E0,1.261163705E1
1.464109254E1,-4.569975593E0,-1.375416097E1,-3.054250411E0,1.481182184E1
1.465108254E1,-1.094260216E1,-1.674397214E1,-1.382860655E0,2.005027303E1
1.466107254E1,-1.664863562E1,-1.803933856E1,-1.201319227E0,2.457718397E1
1.467106254E1,-1.898488011E1,-1.596012949E1,-9.429366142E-1,2.482016389E1
1.468105154E1,-1.866477546E1,-1.116141316E1,5.412033704E0,2.241073617E1
1.469104154E1,-9.225031682E0,-4.338642785E0,2.783755759E1,2.964548268E1
1.470103154E1,-2.697736902E0,2.538901967E-1,2.442924132E1,2.457905767E1
1.471102154E1,-2.165496583E0,2.144721279E0,4.864667661E0,5.740574559E0
1.472101154E1,-2.369288566E0,4.234502705E0,-4.402620826E-1,4.872204036E0
1.473100154E1,-2.416732582E0,7.002136638E0,-2.903737233E0,7.956268208E0
1.474099154E1,-2.452173141E0,9.544607161E0,-3.865387861E0,1.058555158E1
1.475098154E1,-2.452357620E0,1.109720722E1,-4.550393853E0,1.224206479E1
1.476097154E1,-2.268570715E0,1.177698697E1,-4.962418488E0,1.297957752E1
1.477096154E1,-1.914485116E0,1.274716284E1,-5.954945923E0,1.419918289E1
1.478095154E1,-1.472085072E0,1.394688870E1,-6.968843177E0,1.566038040E1
1.479094054E1,-9.811179822E-1,1.463903297E1,-7.770776525E0,1.660267589E1
1.480093054E1,-3.896290688E-1,1.442482257E1,-7.570539794E0,1.629541008E1
1.481092054E1,-2.728011154E-2,1.359732344E1,-5.844600778E0,1.480024686E1
1.482091054E1,2.640669101E-1,1.256205871E1,-3.697654048E0,1.309762176E1
1.483090054E1,6.524340767E-1,1.174625401E1,-2.451618825E0,1.201709567E1
1.484089054E1,1.060093400E0,1.117802627E1,-1.521214548E0,1.133076180E1
1.485088054E1,1.857803670E0,1.070031694E1,5.448242587E-1,1.087405400E1
1.486087054E1,4.613893153E0,1.034992722E1,8.749712691E0,1.431665029E1
1.487086054E1,5.399161059E0,1.012980527E1,8.385068629E0,1.421524783E1
1.488085054E1,4.426828445E0,1.006969122E1,2.762790100E0,1.134145055E1
1.489083954E1,4.132458851E0,1.003179191E1,4.503472140E-1,1.085895380E1
1.490082954E1,3.762397928E0,1.009611479E1,-1.007600387E0,1.082138764E1
1.491081954E1,2.861201663E0,9.936608591E0,-1.971382325E0,1.052658603E1
1.492080954E1,1.865573742E0,9.505447188E0,-2.116010866E0,9.915210215E0
1.493079954E1,1.167235733E0,9.316767479E0,-1.495233030E0,9.507908147E0
1.494078954E1,6.446400306E-1,9.383881236E0,-8.202841030E-1,9.441697613E0
1.495077954E1,2.502983252E-1,9.645699672E0,-4.222401600E-1,9.658180893E0
1.496076954E1,-4.777175188E-2,1.001306561E1,-3.648358512E-1,1.001982387E1
1.497075954E1,-3.201442663E-1,1.030897215E1,-5.982420820E-1,1.033127740E1
1.498074954E1,-6.282410757E-1,1.058919996E1,-9.177491480E-1,1.064744599E1
1.499073854E1,-1.078851195E0,1.091971733E1,-1.167297349E0,1.103479631E1
1.500072854E1,-1.508845494E0,1.117080613E1,-1.720197197E0,1.140274540E1
1.501071854E1,-1.613045947E0,1.124641998E1,-2.639448348E0,1.166407164E1
1.502070854E1,-1.646750759E0,1.126839849E1,-3.382595544E0,1.187983776E1
1.503069854E1,-1.847200329E0,1.102321539E1,-3.569059158E0,1.173292844E1
1.504068854E1,-2.780386711E0,1.053214283E1,-3.321717843E0,1.138816896E1
1.505067854E1,-5.146853119E0,8.688713368E0,-2.651325213E0,1.044094643E1
1.506066854E1,-3.833055097E0,4.836471802E0,-1.075182360E0,6.264166982E0
1.507065854E1,-2.516456260E0,1.290115628E0,-1.786685447E-1,2.833526582E0
1.508064854E1,-2.505246271E0,-2.616034927E0,-3.495407045E-2,3.622308574E0
1.509063854E1,-1.556571491E0,-4.642555327E0,-1.335812057E0,5.075492944E0
1.510062754E1,-2.808763541E0,-9.533592761E0,-1.957581142E0,1.012969237E1
1.511061754E1,-6.365712823E0,-2.012976260E1,-1.713730761E0,2.118174958E1
1.512060754E1,-1.012076665E1,-2.917738157E1,-1.675385305E0,3.092824646E1
1.513059754E1,-1.131132174E1,-2.937941223E1,-3.975119926E-1,3.148418457E1
1.514058754E1,-9.132719935E0,-2.248647351E1,5.797548818E0,2.495314883E1
1.515057754E1,-8.039208747E0,-1.654758755E1,7.039148344E0,1.969774455E1
1.516056754E1,-7.791634712E0,-1.497895735E1,2.236840069E0,1.703179932E1
1.517055754E1,-7.073249890E0,-1.610752844E1,-7.887893915E-2,1.759231532E1
1.518054754E1,-5.130415426E0,-1.817091027E1,-8.628416003E-1,1.890099569E1
1.519053754E1,-3.328217023E0,-2.195927218E1,1.798644465E-1,2.221078599E1
1.520052754E1,-1.309224621E0,-2.697156858E1,2.951113421E0,2.716410594E1
1.521051754E1,6.814700340E-1,-3.025771781E1,9.919452860E0,3.184948090E1
1.522050654E1,1.351647633E0,-2.997487162E1,1.102148812E1,3.196549828E1
1.523049654E1,8.381222769E-1,-2.664976356E1,5.481624341E0,2.722059059E1
1.524048654E1,6.410543717E-1,-2.172957016E1,3.041271932E0,2.195072903E1
1.525047654E1,1.101759563E0,-1.719403350E1,4.546138249E0,1.781897963E1
1.526046654E1,2.050804763E0,-1.384406074E1,5.981653665E0,1.521985540E1
1.527045654E1,3.074683506E0,-1.112097615E1,5.352374563E0,1.271918640E1
1.528044654E1,4.363387325E0,-9.114638590E0,4.139224957E0,1.092011762E1
1.529043654E1,5.648197482E0,-7.687409847E0,3.433741139E0,1.013849018E1
1.530042654E1,5.805417416E0,-6.343077666E0,1.758473509E0,8.776658518E0
1.531041654E1,5.369698693E0,-4.418705201E0,7.893653423E-1,6.998693974E0
1.532040654E1,4.830331933E0,-1.931116059E0,8.514230114E-1,5.271265215E0
1.533039554E1,3.626551906E0,6.705902660E-1,2.653682810E-1,3.697565463E0
1.534038554E1,1.688766805E0,3.166040989E0,-1.040732465E0,3.736157508E0
1.535037554E1,-2.576035441E-1,5.095492930E0,-2.653628139E0,5.750839077E0
1.536036554E1,-1.187104938E0,6.452235827E0,-4.049489785E0,7.709664896E0
1.537035554E1,-1.368707177E0,7.735396192E0,-4.865860785E0,9.240471566E0
1.538034554E1,-1.251898373E0,8.905515845E0,-5.492437597E0,1.053766259E1
1.539033554E1,-1.157311327E0,9.781656207E0,-5.593465789E0,1.132726919E1
1.540032554E1,-1.140326482E0,1.075472879E1,-5.377751479E0,1.207827582E1
1.541031554E1,-1.243525306E0,1.185184537E1,-5.397081789E0,1.308209026E1
1.542030554E1,-1.345980804E0,1.278384710E1,-5.446955615E0,1.396093609E1
1.543029554E1,-1.498256333E0,1.352657213E1,-5.649431244E0,1.473529772E1
1.544028454E1,-1.676670962E0,1.394672498E1,-5.786231532E0,1.519219663E1
1.545027454E1,-1.849605727E0,1.386621584E1,-5.539700056E0,1.504597154E1
1.546026454E1,-1.954980008E0,1.353165921E1,-4.911552975E0,1.452759789E1
1.547025454E1,-1.953635441E0,1.310672100E1,-4.108753654E0,1.387388494E1
1.548024454E1,-1.822600800E0,1.259576556E1,-3.130837242E0,1.310638492E1
1.549023454E1,-1.644291859E0,1.228964511E1,-2.035201176E0,1.256507527E1
1.550022454E1,-1.389924968E0,1.203231383E1,-8.805136402E-1,1.214428968E1
1.551021454E1,-8.704239041E-1,1.149514650E1,1.508888617E-1,1.152904152E1
1.552020454E1,3.584248178E-2,1.045169216E1,6.457404765E-1,1.047168250E1
1.553019454E1,9.389508596E-1,9.207744974E0,3.080605567E-1,9.260620796E0
1.554018354E1,1.475214064E0,8.474414084E0,-3.683231306E-1,8.609739400E0
1.555017354E1,1.829057442E0,8.033912923E0,-8.191769327E-1,8.280112248E0
1.556016354E1,2.163634829E0,7.738668879E0,-7.792900050E-1,8.073140938E0
1.557015354E1,2.643368614E0,7.360207846E0,-2.465484327E-1,7.824374946E0
1.558014354E1,3.149678725E0,7.009426947E0,2.061893423E-1,7.687330892E0
1.559013354E1,3.616928266E0,6.797673540E0,4.522708748E-1,7.713305685E0
1.560012354E1,3.975365217E0,6.786908816E0,5.947799456E-1,7.887928947E0
1.561011354E1,4.242424513E0,6.970400875E0,3.909746593E-1,8.169303232E0
1.562010346E1,4.418651699E0,7.325012870E0,-8.048502311E-2,8.554926897E0
1.563009346E1,4.527441777E0,7.862004783E0,-5.770815933E-1,9.090757472E0
1.564008346E1,4.563493662E0,8.472609048E0,-1.023923913E0,9.677757936E0
1.565007246E1,4.461585172E0,9.136913558E0,-1.315512571E0,1.025278035E1
1.566006246E1,4.266943350E0,9.777799968E0,-1.549080770E0,1.078015904E1
1.567005246E1,3.919742408E0,1.034394668E1,-1.748506345E0,1.119905746E1
1.568004246E1,3.540720627E0,1.077959232E1,-1.849703083E0,1.149598689E1
1.569003246E1,3.177789799E0,1.102634716E1,-1.810212012E0,1.161703693E1
1.570002246E1,2.945681065E0,1.110005248E1,-1.722114353E0,1.161266032E1
1.571001246E1,2.646788650E0,1.074336765E1,-1.585207938E0,1.117758126E1
1.572000246E1,2.240426020E0,1.004666021E1,-1.247465453E0,1.036875403E1
1.572999246E1,1.700643084E0,9.500780525E0,-8.034226334E-1,9.685169354E0
1.573998246E1,9.919336501E-1,9.369555557E0,-6.197203669E-1,9.442274993E0
1.574997246E1,4.492550272E-1,9.539332972E0,-8.785729493E-1,9.590234307E0
1.575996146E1,2.149769765E-1,9.874908772E0,-1.371098396E0,9.971958141E0
1.576995146E1,1.106237653E-1,1.011202038E1,-2.341541628E0,1.038017394E1
1.577994146E1,-4.372252581E-1,1.031203024E1,-2.856216327E0,1.070920657E1
1.578993146E1,-2.608469800E0,1.076560227E1,-2.569025068E0,1.137111238E1
1.579992146E1,-4.355401197E0,8.689526716E0,-4.037148651E0,1.052501607E1
1.580991146E1,-3.111758947E0,2.935606313E0,-5.165740210E0,6.707137995E0
1.581990146E1,-7.598910484E0,-2.444943058E0,-6.245650774E0,1.013554837E1
1.582989146E1,-1.486161309E1,-9.857379988E0,-6.935578952E0,1.913472600E1
1.583988146E1,-1.307855379E1,-1.566731847E1,-5.822209450E0,2.122290178E1
1.584987146E1,-1.601116399E1,-2.641851554E1,-5.166579285E0,3.132074196E1
1.585986146E1,-1.790990109E1,-4.062832546E1,-1.574468064E0,4.442864320E1
1.586985046E1,-1.215405403E1,-5.215217244E1,1.131134045E1,5.473131226E1
1.587984046E1,-4.510308266E-1,-6.464145553E1,4.007547824E1,7.605764365E1
1.588983046E1,4.430962719E0,-4.614137040E1,2.769486916E1,5.399690057E1
1.589982046E1,-1.940919794E0,-2.398261461E1,6.830278199E0,2.501171073E1
1.590981046E1,-3.581675695E0,-1.673446223E1,-7.396186933E-2,1.711362314E1
1.591980046E1,-1.718094977E0,-1.323767524E1,-3.333773632E0,1.375870425E1
1.592979046E1,1.333896948E0,-1.113983576E1,1.210969033E0,1.128457655E1
1.593978046E1,3.268186876E0,-1.297628365E1,4.930473395E0,1.426094494E1
1.594977046E1,3.714281775E0,-1.682676169E1,4.700695946E0,1.786147644E1
1.595976046E1,3.545075049E0,-1.862675219E1,3.851872607E0,1.934839468E1
1.596975046E1,2.469037680E0,-1.843298716E1,2.850225855E0,1.881475352E1
1.597974046E1,1.936624137E-1,-1.721221483E1,1.485089280E0,1.727724905E1
1.598972946E1,-2.350646181E0,-1.552669644E1,9.139921658E-1,1.573020094E1
1.599971946E1,-4.079047752E0,-1.295291934E1,7.454246861E-1,1.360045617E1
1.600970946E1,-4.626416427E0,-9.920720537E0,4.574238798E-1,1.095598747E1
1.601969946E1,-4.586732544E0,-6.998524813E0,3.843110262E-1,8.376464645E0
1.602968946E1,-4.055432310E0,-4.559004462E0,-2.676451868E-1,6.107592558E0
1.603967946E1,-3.138450317E0,-2.338602671E0,-1.267790082E0,4.114149309E0
1.604966946E1,-2.095849812E0,-2.831677902E-1,-2.011893736E0,2.918987296E0
1.605965946E1,-1.282995766E0,1.541635364E0,-2.543128334E0,3.238860827E0
1.606964946E1,-7.432097608E-1,3.304619415E0,-2.964854085E0,4.501469757E0
1.607963946E1,-4.304525743E-1,4.944003267E0,-3.560618410E0,6.107901537E0
1.608962946E1,-2.575254837E-1,6.549408950E0,-4.128418425E0,7.746283990E0
1.609961846E1,-1.221030191E-1,8.078955195E0,-4.463297237E0,9.230679737E0
1.610960846E1,-3.142118275E-2,9.451599594E0,-4.503005678E0,1.046951681E1
1.611959846E1,4.068361089E-2,1.064703126E1,-4.472879069E0,1.154848808E1
1.612958846E1,6.306682549E-2,1.160638159E1,-4.347765026E0,1.239415716E1
1.613957846E1,7.033425674E-2,1.217864625E1,-4.093124632E0,1.284826995E1
1.614956846E1,1.545145740E-1,1.248825164E1,-3.887333046E0,1.308020115E1
1.615955846E1,2.435402230E-1,1.260364410E1,-3.640208078E0,1.312106213E1
1.616954846E1,3.447627619E-1,1.270915477E1,-3.445658349E0,1.317247273E1
1.617953846E1,4.967225046E-1,1.281263178E1,-3.411746253E0,1.326839398E1
1.618952846E1,6.936849406E-1,1.276865604E1,-3.240092466E0,1.319158728E1
1.619951846E1,7.992313492E-1,1.251819406E1,-2.900423031E0,1.287464202E1
1.620950746E1,8.134853261E-1,1.222153908E1,-2.517401755E0,1.250460266E1
1.621949746E1,7.892809962E-1,1.195434004E1,-2.068523727E0,1.215763138E1
1.622948746E1,6.564607617E-1,1.183126434E1,-1.278386114E0,1.191822250E1
1.623947746E1,3.060720648E-1,1.169213335E1,-5.924850596E-1,1.171113577E1
1.624946746E1,-6.670335509E-2,1.121756046E1,-4.299646242E-1,1.122599580E1
1.625945746E1,-5.205202337E-2,1.056592336E1,-6.503286405E-1,1.058604616E1
1.626944746E1,1.363994613E-1,1.012113853E1,-1.139814119E0,1.018603093E1
1.627943746E1,2.360405476E-1,9.929821143E0,-1.658972610E0,1.007021614E1
1.628942746E1,2.242451788E-1,9.785773816E0,-1.901305054E0,9.971289585E0
1.629941746E1,2.246221049E-1,9.626663477E0,-1.970267846E0,9.828787319E0
1.630940746E1,1.565238600E-1,9.380589838E0,-1.785214580E0,9.550233323E0
1.631939646E1,-1.297744564E-1,9.100132817E0,-1.186721141E0,9.178102514E0
1.632938646E1,-6.457826496E-1,8.639014959E0,-8.160140276E-2,8.663502379E0
1.633937646E1,-2.706716325E-1,8.163051020E0,-1.809314172E-1,8.169541068E0
1.634936646E1,5.153628433E-1,8.100853602E0,-4.868951623E-1,8.131819897E0
1.635935646E1,6.748947669E-1,8.589617681E0,-5.742229626E-1,8.635203927E0
1.636934646E1,4.825130396E-1,9.793093361E0,-1.383587463E0,9.902111425E0
1.637933646E1,5.744603596E-1,1.097236800E1,-2.608359872E0,1.129275898E1
1.638932646E1,8.496153447E-1,1.148122545E1,-3.489862130E0,1.202994272E1
1.639931646E1,8.266580066E-1,1.173727268E1,-4.037762609E0,1.243987381E1
1.640930646E1,9.221124865E-1,1.188976573E1,-4.666192696E0,1.280586486E1
1.641929646E1,1.229768270E0,1.143317537E1,-5.147736633E0,1.259877063E1
1.642928546E1,1.801181134E0,9.577441031E0,-4.341207958E0,1.066853864E1
1.643927546E1,2.529516601E0,6.770915512E0,-2.228597834E0,7.563755642E0
1.644926546E1,2.630238399E0,4.725779332E0,1.575462091E0,5.633225109E0
1.645925546E1,2.048559579E0,3.176711572E0,3.072781992E0,4.871353193E0
1.646924546E1,1.763935101E0,2.674062111E0,-1.135000691E0,3.398573492E0
1.647923546E1,1.164370963E0,1.282897241E0,-3.871863652E0,4.241805419E0
1.648922546E1,-1.014190784E-1,-2.453783464E0,-4.697324442E0,5.300584499E0
1.649921546E1,-2.053238082E0,-1.018227234E1,-5.855993493E0,1.192422393E1
1.650920546E1,-6.540039371E0,-2.494487452E1,-9.961619471E0,2.764512149E1
1.651919546E1,-1.442480035E1,-4.794293029E1,-1.430315137E1,5.206898855E1
1.652918546E1,-1.966332553E1,-6.748471325E1,-8.266506976E0,7.077547620E1
