"Time (s)","Linear Acceleration x (m/s^2)","Linear Acceleration y (m/s^2)","Linear Acceleration z (m/s^2)","Absolute acceleration (m/s^2)"
5.137729600E-2,0.000000000E0,0.000000000E0,0.000000000E0,0.000000000E0
5.611969100E-2,2.487611771E-2,3.999352455E-2,-2.717638016E-1,2.758149145E-1
6.086208700E-2,7.421350479E-2,1.061453819E-1,-4.226875305E-1,4.420850991E-1
6.560443100E-2,1.172652245E-1,1.012985706E-1,-3.648910522E-1,3.964315998E-1
7.034682700E-2,1.364562511E-1,1.023199558E-1,-2.173233032E-1,2.762591174E-1
7.508922300E-2,8.696827888E-1,2.438645363E-1,3.058643341E-1,9.536094883E-1
7.983156600E-2,1.656177282E0,4.928677082E-1,1.870917320E0,2.546796691E0
8.457396200E-2,6.084246635E-1,7.269973755E-1,2.624665260E0,2.790622419E0
8.931635800E-2,-1.451895475E0,2.769186497E-1,1.019007683E0,1.795288575E0
9.405870200E-2,-1.364591122E0,1.017689705E-2,-1.418716431E0,1.968494046E0
9.880109800E-2,-7.489490509E-1,-4.215593338E-1,-2.182839870E0,2.345938374E0
1.035434930E-1,-5.000319481E-1,-7.701178789E-1,-1.455712795E0,1.721108143E0
1.082858890E-1,1.154916286E-1,-6.292767525E-1,-8.435769081E-1,1.058749048E0
1.130282330E-1,4.835622311E-1,-4.210634232E-1,-3.480806351E-1,7.295799930E-1
1.177706290E-1,2.914242744E-1,-3.045098782E-1,4.126644135E-2,4.235059537E-1
1.225130250E-1,-3.427338600E-2,-1.811530590E-1,1.199722290E-1,2.199646142E-1
1.272553680E-1,-3.307435513E-1,-1.432013512E-2,-2.327823639E-2,3.318708171E-1
1.319977640E-1,-4.438741207E-1,4.344439507E-2,-1.627187729E-1,4.747515661E-1
1.367401600E-1,-4.136648178E-1,-3.796005249E-2,-1.317420006E-1,4.357929575E-1
1.414825560E-1,-3.218264580E-1,-1.929411888E-1,-2.040195465E-2,3.757855920E-1
1.462249000E-1,-2.684211731E-1,-3.024652004E-1,5.652809143E-2,4.083265222E-1
1.509672960E-1,-2.883591652E-1,-3.100397587E-1,2.974290848E-1,5.174357164E-1
1.557096910E-1,-1.753506660E-1,-2.985471487E-1,6.135482788E-1,7.044996427E-1
1.604520350E-1,-2.123165131E-1,-3.127942085E-1,8.285369873E-1,9.107096452E-1
1.651944310E-1,-2.650885582E-1,-2.001211643E-1,8.135690689E-1,8.787576765E-1
1.699368270E-1,-2.920618057E-1,-1.719784737E-1,5.932121277E-1,6.832110378E-1
1.746791710E-1,-3.842477798E-1,-2.388004065E-1,3.425102234E-1,5.674374358E-1
1.794215660E-1,-3.780622482E-1,-3.390786648E-1,1.308727264E-2,5.080124813E-1
1.841639620E-1,-3.417010307E-1,-4.295618534E-1,-3.195133209E-1,6.351155348E-1
1.889063580E-1,-2.022767067E-1,-4.313256741E-1,-6.262383461E-1,7.868495214E-1
1.936487020E-1,-6.972026825E-2,-4.046691656E-1,-8.231563568E-1,9.198937097E-1
1.983910980E-1,6.346654892E-2,-3.223235607E-1,-9.025063515E-1,9.604364607E-1
2.031334930E-1,1.892662048E-1,-2.370357513E-1,-9.045314789E-1,9.540360790E-1
2.078758370E-1,1.391128063E0,2.042572498E-1,2.608917236E0,2.963681403E0
2.126182330E-1,4.155503273E0,1.296201706E0,1.164479733E1,1.243179999E1
2.173606290E-1,2.937914848E0,1.678495169E0,8.130354881E0,8.806325010E0
2.221030250E-1,9.640641212E-1,1.358049631E0,-2.741127014E-1,1.687855504E0
2.268453680E-1,1.527865887E0,1.113959551E0,-2.429102421E0,3.078281764E0
2.315877640E-1,3.739463806E0,1.256608963E0,-7.879424095E-1,4.022873213E0
2.363301600E-1,5.931392670E0,1.695139647E0,1.900959015E-1,6.171795029E0
2.410725040E-1,7.955292702E0,2.220619917E0,-3.258867264E-1,8.265835526E0
2.458149000E-1,7.654401779E0,2.469897509E0,3.755636215E-1,8.051789139E0
2.505572960E-1,3.398258448E0,2.171200037E0,9.050598145E-1,4.132965442E0
2.552996390E-1,-3.261637688E-2,1.779592752E0,2.208032608E-1,1.793535133E0
2.600420350E-1,-1.882569551E0,9.740321636E-1,-1.049972057E0,2.365427677E0
2.647844310E-1,-3.235281944E0,-3.948085308E-1,-1.730245590E0,3.690077619E0
2.695268270E-1,-3.623347282E0,-1.680277944E0,-1.761472702E0,4.365176466E0
2.742691710E-1,-3.796502829E0,-2.859478951E0,-1.075634003E0,4.873093689E0
2.790115660E-1,-4.046560287E0,-3.630481243E0,-2.544069290E-1,5.442404533E0
2.837539100E-1,-4.380872726E0,-4.021946430E0,4.306926727E-1,5.962683549E0
2.884963060E-1,-4.340270996E0,-4.027211666E0,7.863988876E-1,5.972839303E0
2.932387020E-1,-3.270191193E0,-3.484534740E0,7.240772247E-1,4.833261903E0
2.979810980E-1,-2.213968754E0,-2.748483658E0,4.992551804E-1,3.564418016E0
3.027234410E-1,-1.773478985E0,-2.122487307E0,3.247623444E-1,2.784896884E0
3.074658370E-1,-1.311835766E0,-1.609045506E0,2.941884995E-1,2.096780243E0
3.122082330E-1,-6.207935810E-1,-1.210915685E0,1.888055801E-1,1.373808215E0
3.169505770E-1,4.875874519E-2,-8.305087090E-1,4.767417908E-3,8.319524380E-1
3.216929730E-1,8.075351715E-1,-3.869550228E-1,4.179477692E-2,8.964340725E-1
3.264353680E-1,1.255543232E0,-6.703174114E-2,7.680797577E-2,1.259675167E0
3.311777120E-1,1.385048628E0,1.310212612E-1,1.095771790E-3,1.391232358E0
3.359201080E-1,1.515205383E0,1.877186298E-1,-2.077178955E-1,1.540854426E0
3.406625040E-1,1.781206608E0,6.759226322E-2,-8.284587860E-1,1.965606689E0
3.454049000E-1,1.253610849E0,-4.927945137E-2,-5.239229202E-1,1.359582234E0
3.501472430E-1,1.548850536E-1,-3.157694340E-1,-5.296707153E-3,3.517495848E-1
3.548896390E-1,-9.174854755E-1,1.935672760E-2,-1.123046875E-1,9.245358963E-1
3.596320350E-1,-6.488351822E-1,6.605672836E-2,-6.093311310E-1,8.925441234E-1
3.643743790E-1,-1.607367039E0,1.683863878E0,-1.072735310E0,2.563159652E0
3.691167750E-1,-2.200098038E0,1.446745396E0,-2.963190079E-1,2.649775192E0
3.738591710E-1,-2.346661568E0,1.145611644E0,-3.990497589E-1,2.641682657E0
3.786015140E-1,-2.204453230E0,1.149687171E0,-9.022378922E-1,2.644887114E0
3.833439100E-1,-2.016921759E0,1.230820060E0,-1.657051086E0,2.885950399E0
3.880863060E-1,-1.821046829E0,1.319393396E0,-1.944394588E0,2.972823709E0
3.928286500E-1,-1.505593300E0,1.492542386E0,-1.634912968E0,2.677206449E0
3.975710460E-1,-1.389029503E0,1.665591598E0,-1.387401581E0,2.574583748E0
4.023134410E-1,-1.308705807E0,1.731650472E0,-1.330009937E0,2.545633650E0
4.070558370E-1,-1.415304422E0,1.625654459E0,-1.340997219E0,2.538525669E0
4.117981810E-1,-1.529100418E0,1.141770244E0,-1.361702442E0,2.344359383E0
4.165405770E-1,-1.252089262E0,7.289018631E-1,-1.561781406E0,2.130301999E0
4.212829730E-1,-8.391022682E-1,6.288301945E-1,-1.875870228E0,2.149048427E0
4.260253160E-1,-2.080502510E-1,1.003313899E0,-2.088785648E0,2.326574558E0
4.307677120E-1,4.404659271E-1,2.223712683E0,-2.097198963E0,3.088227942E0
4.355101080E-1,-1.065891027E0,1.723456621E0,-1.654481888E-1,2.033174737E0
4.402524520E-1,-2.003296852E0,3.673243523E-1,2.606246948E0,3.307665130E0
4.449948480E-1,-8.456218243E-1,1.753532887E-2,2.074382782E0,2.240189207E0
4.497372430E-1,-8.182113171E-1,-1.565912962E-1,3.207139969E-1,8.926634647E-1
4.544795870E-1,-6.044270992E-1,-5.718811750E-1,6.307029724E-2,8.344807122E-1
4.592219830E-1,7.529687881E-2,-1.118984222E0,4.813747406E-1,1.220457681E0
4.639643790E-1,5.227026939E-1,-1.741501808E0,7.155637741E-1,1.953990320E0
4.687067230E-1,5.416848660E-1,-2.522514343E0,1.173691750E0,2.834440585E0
4.734491180E-1,1.104112148E0,-2.987592459E0,8.854789734E-1,3.305880419E0
4.781915140E-1,9.079784393E0,-2.859607458E0,-8.626194954E0,1.284644226E1
4.829338580E-1,7.410375595E0,-1.967377186E0,-1.310847092E1,1.518605443E1
4.876762540E-1,-4.624197483E-1,-2.839460135E0,-5.126597881E0,5.878636893E0
4.924186500E-1,-3.882238150E0,-3.487527609E0,1.448805809E0,5.416055774E0
4.971609930E-1,-3.498626947E0,-2.373837948E0,6.237459183E0,7.535343003E0
5.019033890E-1,-2.377707005E0,-1.769607306E0,1.137756920E1,1.175729907E1
5.066457850E-1,-1.290258884E0,-1.882375717E0,1.262027645E1,1.282495552E1
5.113881290E-1,-9.175581932E-1,-2.136027813E0,6.888690948E0,7.270391381E0
5.161305250E-1,-1.147283554E0,-2.964138985E0,7.387790680E-1,3.263153993E0
5.208729210E-1,-5.435333252E-1,-3.353675365E0,-2.350608826E0,4.131334988E0
5.256152640E-1,1.404531002E-1,-3.292433977E0,-2.421687126E0,4.089549743E0
5.303576600E-1,2.482483387E-1,-3.241457462E0,-6.981315613E-1,3.325065623E0
5.351000560E-1,-5.087585449E-1,-3.087737083E0,1.251002312E0,3.370157613E0
5.398424000E-1,-1.138718128E0,-2.428815126E0,2.273688316E0,3.516458510E0
5.445847960E-1,-8.862078190E-1,-2.088527441E0,1.757374763E0,2.869786966E0
5.493271910E-1,-1.446108580E0,-2.046568394E0,1.083697319E0,2.730214661E0
5.540695350E-1,-2.307392597E0,-2.214333296E0,5.426082611E-1,3.243725677E0
5.588119310E-1,-2.907455683E0,-2.320742846E0,1.324138641E-1,3.722456089E0
5.635543270E-1,-3.865594864E0,-2.500369787E0,-2.063550949E-1,4.608389648E0
5.682966710E-1,-7.032485485E0,-4.310455799E0,3.858308792E-1,8.257405571E0
5.730390660E-1,-6.914584160E0,-5.246454716E0,6.640062332E-1,8.705036787E0
5.777814620E-1,-6.060872078E0,-4.863209724E0,5.646991730E-1,7.791268467E0
5.825238060E-1,-4.593439579E0,-3.748559952E0,5.701637268E-2,5.929134823E0
5.872662020E-1,-2.674544811E0,-1.711914420E0,-1.616458893E-1,3.179617952E0
5.920085980E-1,-9.821109772E-1,8.981505632E-1,1.132307053E-1,1.335678703E0
5.967509410E-1,-7.665371895E-2,3.945307255E0,4.154996872E-1,3.967866570E0
6.014933370E-1,2.958345413E-2,5.776633739E0,5.175724030E-1,5.799849458E0
6.062357330E-1,-4.759256840E-1,6.502865791E0,-3.006887436E-1,6.527187946E0
6.109780770E-1,-1.865389824E0,6.703327179E0,-1.493567467E0,7.116531335E0
6.157204730E-1,-3.841100216E0,5.594746590E0,-2.332945824E0,7.176202094E0
6.204628680E-1,-5.122757435E0,3.922468901E0,-2.891600132E0,7.070343509E0
6.252052120E-1,-4.460516930E0,2.143275261E0,-3.721749306E0,6.192031817E0
6.299476080E-1,-2.413089275E0,1.885247231E-1,-4.224194527E0,4.868507042E0
6.346900040E-1,-9.040718079E-1,-1.643110394E0,-4.179430962E0,4.580917022E0
6.394323480E-1,1.412215233E-1,-2.880250216E0,-4.284311771E0,5.164408212E0
6.441747430E-1,1.210138798E0,-3.427860498E0,-4.713529110E0,5.952480170E0
6.489171390E-1,2.013043165E0,-3.574081182E0,-5.548851967E0,6.900446162E0
6.536594830E-1,2.292584896E0,-3.363546610E0,-6.496541977E0,7.666449567E0
6.584018790E-1,1.919757485E0,-2.937165499E0,-7.307578087E0,8.106362160E0
6.631442750E-1,1.139021397E0,-2.400583982E0,-7.765027046E0,8.207059049E0
6.678866180E-1,2.527663708E-1,-1.833221436E0,-7.997392654E0,8.208707629E0
6.726290140E-1,-6.786663532E-1,-1.477732301E0,-8.143691063E0,8.304455726E0
6.773714100E-1,-8.251413107E-1,-1.210742712E0,-8.317918777E0,8.445977083E0
6.821137540E-1,-1.478751540E0,-1.255928993E0,-7.893829823E0,8.128752243E0
6.868561500E-1,-2.103539944E0,-1.513723612E0,-7.425705433E0,7.864943779E0
6.915984930E-1,-2.489095926E0,-2.095783234E0,-6.620078564E0,7.376540252E0
6.963408890E-1,-2.063910484E0,-2.869637251E0,-6.077333450E0,7.030542391E0
7.010832850E-1,-9.233925343E-1,-3.553616285E0,-5.564546108E0,6.666709523E0
7.058256290E-1,-3.006538153E-1,-3.992724180E0,-4.608097076E0,6.104653779E0
7.105680250E-1,9.806859493E-2,-3.948277950E0,-3.591454983E0,5.338264242E0
7.153104210E-1,5.776255727E-1,-3.614390135E0,-2.584190845E0,4.480570240E0
7.200527640E-1,7.951656580E-1,-3.124378920E0,-1.705562115E0,3.647324250E0
7.247951600E-1,1.142001152E-1,-2.686710835E0,-7.650952339E-1,2.795858990E0
7.295375560E-1,4.734816551E-1,-2.280653477E0,-2.986388206E-1,2.348350550E0
7.342799000E-1,1.173590302E0,-2.473783731E0,7.598552704E-1,2.841531309E0
7.390222960E-1,1.481329560E0,-2.571685791E0,1.139179230E0,3.178936047E0
7.437646910E-1,1.977231026E0,-2.773691177E0,1.727781296E0,3.819428424E0
7.485070350E-1,4.540008545E0,-2.645467758E0,7.466109276E0,9.129784497E0
7.532494310E-1,1.123317432E1,-4.823706150E-1,3.212615204E1,3.403684080E1
7.579917750E-1,7.806881905E0,1.229408264E0,2.343753815E1,2.473412712E1
7.627341710E-1,2.933767557E0,6.653492451E-1,1.064316082E1,1.106013354E1
7.674765660E-1,5.773332119E-1,-4.477739334E-2,5.166934013E0,5.199281273E0
7.722189100E-1,1.747712135E0,6.579833031E-1,2.895299911E0,3.445315851E0
7.769613060E-1,3.029856443E0,1.202871084E0,2.637014389E0,4.192943334E0
7.817037020E-1,5.124021530E0,2.135200977E0,5.425758362E-1,5.577550394E0
7.864460460E-1,6.337848186E0,2.894318342E0,-2.222107887E0,7.313218290E0
7.911884410E-1,6.439285278E0,3.206461430E0,-3.815637589E0,8.142780852E0
7.959307850E-1,6.636631489E0,3.100600243E0,-4.408791542E0,8.549622345E0
8.006731810E-1,6.702273369E0,2.183613300E0,-4.098000050E0,8.153664192E0
8.054155770E-1,6.301823139E0,3.445019722E-1,-3.119037628E0,7.039890071E0
8.101579210E-1,5.852748871E0,-2.502212763E0,-1.236184120E0,6.484125942E0
8.149003160E-1,4.974187851E0,-4.737892628E0,2.801251411E-1,6.875219373E0
8.196426600E-1,2.611892700E0,-3.690811396E0,-2.271714211E-1,4.527215379E0
8.243850560E-1,4.729237556E-1,-1.849001884E0,-4.879665375E-2,1.909147967E0
8.291274520E-1,-1.707773685E0,-6.005887985E-1,1.992601395E0,2.692147504E0
8.338697960E-1,-3.024842978E0,2.750818729E-1,3.555857658E0,4.676480382E0
8.386121910E-1,-3.409179211E0,9.055061340E-1,3.790778637E0,5.178073669E0
8.433545870E-1,-2.771515131E0,1.459103823E0,3.841029644E0,4.956186923E0
8.480969310E-1,-1.046545029E0,2.117102146E0,3.611736298E0,4.315323519E0
8.528393270E-1,9.047145844E-1,2.078096151E0,3.606443882E0,4.259510484E0
8.575817230E-1,3.258527756E0,1.639226913E0,3.173359871E0,4.834798949E0
8.623240660E-1,5.417118073E0,1.216609240E0,2.743971825E0,6.193116148E0
8.670664620E-1,7.062930584E0,7.235932350E-1,2.267810822E0,7.453290651E0
8.718088060E-1,8.277189255E0,6.424140930E-2,1.547307014E0,8.420816345E0
8.765512020E-1,8.741310120E0,-6.728839874E-1,6.326417923E-1,8.789966502E0
8.812935980E-1,8.556514740E0,-1.048733711E0,-6.185469627E-1,8.642707171E0
8.860359410E-1,7.496693134E0,-7.906148434E-1,-1.552144527E0,7.696403862E0
8.907783370E-1,5.926791191E0,-1.920943260E-1,-2.171380043E0,6.314954105E0
8.955206810E-1,4.109088421E0,3.309578896E-1,-2.571513176E0,4.858685089E0
9.002630770E-1,2.346658707E0,4.484848976E-1,-3.130042076E0,3.937652751E0
9.050054730E-1,9.265155792E-1,4.467172623E-1,-3.936679363E0,4.068836669E0
9.097478160E-1,5.170965195E-2,3.597946167E-1,-3.855682611E0,3.872778648E0
9.144902120E-1,1.392995834E0,5.520439148E-1,1.028106594E1,1.038968271E1
9.192325560E-1,5.610737801E-1,4.881615639E-1,-3.581190109E-2,7.445723547E-1
9.239749520E-1,-2.267262697E0,-6.140890121E-1,1.694474220E-1,2.355057936E0
9.287173480E-1,-2.054165840E0,-6.490132809E-1,-1.107303143E0,2.422175837E0
9.334596910E-1,-1.595815182E0,-3.415060043E-2,-2.005079269E0,2.562837341E0
9.382020870E-1,-3.712573051E-1,5.808758736E-1,-1.815882206E0,1.942338012E0
9.429444310E-1,-2.087178230E-1,-6.219041348E-1,-1.219555378E0,1.384789949E0
9.476868270E-1,-1.885986328E-2,-1.452592731E0,-9.880757332E-1,1.756893562E0
9.524291710E-1,1.179323196E0,-1.370051861E0,-2.003057003E0,2.698162831E0
9.571715660E-1,1.476391315E0,2.327196598E-1,-2.503832579E0,2.916001944E0
9.619139620E-1,6.766681671E-1,8.264093399E-1,-2.029220581E0,2.293156857E0
9.666563060E-1,4.098215103E-1,1.016868353E0,-2.168479919E0,2.429872441E0
9.713987020E-1,6.797366142E-1,4.603116512E-1,-2.136714697E0,2.288990690E0
9.761410460E-1,1.164749622E0,-1.855359077E-1,-1.862785816E0,2.204775783E0
9.808834410E-1,1.342794895E0,-5.977847576E-1,-1.870869637E0,2.379201115E0
9.856258370E-1,8.758368492E-1,-8.815312386E-1,-1.443929195E0,1.905024680E0
9.903681810E-1,1.712799072E-3,-6.356182098E-1,-4.148597717E-1,7.590270565E-1
9.951105770E-1,-9.987554550E-1,-1.390202045E-1,1.794312477E0,2.058250797E0
9.998529210E-1,-1.747249603E0,1.932346821E-1,4.365067959E0,4.705745329E0
1.004595316E0,-1.886167049E0,1.625301838E-1,5.637416363E0,5.946806323E0
1.009337712E0,-1.156247139E0,-9.315013885E-4,5.253076553E0,5.378821580E0
1.014080056E0,3.282384872E-1,-2.267837524E-3,4.611832619E0,4.623499297E0
1.018822452E0,1.773288250E0,-7.439351082E-2,4.144710064E0,4.508736755E0
1.023564796E0,2.725964546E0,-3.982851505E-1,3.669140339E0,4.588257250E0
1.028307191E0,3.135444641E0,-1.019906759E0,2.663789749E0,4.238749665E0
1.033049535E0,3.245626450E0,-1.809076428E0,1.545572281E0,4.024380977E0
1.037791931E0,2.586550236E0,-2.826809168E0,8.109898567E-1,3.916477594E0
1.042534327E0,8.957066536E-1,-3.749494076E0,6.531300545E-1,3.909932877E0
1.047276671E0,-8.296041489E-1,-4.215004921E0,9.634680748E-1,4.402587905E0
1.052019066E0,-1.765858173E0,-4.047712326E0,1.270215511E0,4.595179823E0
1.056761410E0,-1.631871223E0,-3.438319683E0,1.535858154E0,4.104132820E0
1.061503806E0,-6.137108803E-1,-2.573975563E0,1.511580944E0,3.047436331E0
1.066246202E0,4.180622101E-1,-1.863968492E0,8.761916161E-1,2.101634197E0
1.070988546E0,1.415003777E0,-1.627146482E0,-9.823131561E-2,2.158585360E0
1.075730941E0,1.961839676E0,-1.815783024E0,-1.043588638E0,2.869662027E0
1.080473285E0,2.240075111E0,-2.310541153E0,-2.209556103E0,3.903674563E0
1.085215681E0,2.081615448E0,-2.832458258E0,-3.092905760E0,4.682094477E0
1.089958025E0,2.485327721E0,-3.308929682E0,-3.949834585E0,5.720757185E0
1.094700421E0,3.311646461E0,-3.329983473E0,-4.900234222E0,6.787347615E0
1.099442816E0,3.889517784E0,-2.947665930E0,-6.045442581E0,7.769456804E0
1.104185160E0,4.079759598E0,-2.347004414E0,-6.897444725E0,8.350306092E0
1.108927556E0,4.063565254E0,-1.671685934E0,-7.436132431E0,8.637312196E0
1.113669900E0,4.405241013E0,-1.034442306E0,-7.612857819E0,8.856174311E0
1.118412296E0,4.958140373E0,-5.024933815E-1,-7.549201012E0,9.045777549E0
1.123154639E0,5.038539886E0,-3.273773193E-2,-6.974432945E0,8.604107790E0
1.127897035E0,5.071063995E0,2.338864803E-1,-6.835013866E0,8.513977184E0
1.132639379E0,4.402374268E0,1.908702850E-1,-5.645228386E0,7.161419844E0
1.137381775E0,3.509271622E0,-4.855871201E-3,-4.924659252E0,6.047088526E0
1.142124118E0,2.384527206E0,-3.250517845E-1,-4.615014076E0,5.204803895E0
1.146866514E0,1.247045517E0,-6.865832806E-1,-4.309688568E0,4.538715091E0
1.151608910E0,3.198022842E-1,-8.502781391E-1,-3.627481699E0,3.739501289E0
1.156351254E0,-2.510910034E-1,-7.267296314E-1,-2.718084574E0,2.824741829E0
1.161093650E0,-9.397320747E-1,-3.293368816E-1,-2.083934307E0,2.309619309E0
1.165835993E0,-2.120157719E0,5.933184624E-1,-2.070422173E0,3.022208385E0
1.170578389E0,-4.082374096E0,2.066488981E0,-1.368663311E0,4.775918155E0
1.175320733E0,-5.829517365E0,3.140567303E0,-2.699232101E-1,6.627163362E0
1.180063129E0,-6.454227448E0,3.745017767E0,1.243746996E0,7.564992836E0
1.184805525E0,-5.823809624E0,4.605685234E0,2.021259546E0,7.695101374E0
1.189547868E0,-5.005558968E0,5.236940384E0,2.313346863E0,7.604783946E0
1.194290264E0,-3.906354904E0,5.715930462E0,2.486855984E0,7.356352518E0
1.199032608E0,-3.737390518E0,5.790978909E0,1.829036474E0,7.130841397E0
1.203775004E0,-4.306237698E0,5.365720272E0,5.743598938E-1,6.903950060E0
1.208517348E0,-4.802499294E0,4.324849129E0,-5.055086613E-1,6.482581158E0
1.213259743E0,-4.952059746E0,3.013732195E0,-5.472755432E-1,5.822798982E0
1.218002139E0,-3.617143154E0,2.397097111E0,-9.238052368E-1,4.436576977E0
1.222744483E0,-1.748682976E0,2.310757399E0,-1.764911294E0,3.392993336E0
1.227486827E0,-6.770224571E-1,2.269720554E0,-1.948561788E0,3.067064369E0
1.232229223E0,-3.902416229E-1,1.700116873E0,-2.782402277E0,3.283968382E0
1.236971618E0,-7.587804794E-1,6.891512871E-1,-3.101181746E0,3.266191288E0
1.241713962E0,-1.270213604E0,-2.738025188E-1,-2.575682878E0,2.884883483E0
1.246456358E0,-1.410609245E0,-1.086133957E0,-2.195047855E0,2.826259100E0
1.251198702E0,-1.139239788E0,-1.581794500E0,-2.295583487E0,3.011585078E0
1.255941098E0,-1.153079987E0,-1.712173700E0,-2.017365694E0,2.886329257E0
1.260683441E0,-1.421347618E0,-1.485996485E0,-8.351652622E-1,2.219440384E0
1.265425837E0,-1.612730503E0,-9.618403912E-1,6.863205433E-1,1.999267991E0
1.270168181E0,-1.368389130E0,-5.791251659E-1,1.506498814E0,2.115989944E0
1.274910577E0,-8.862342834E-1,-4.746196270E-1,1.810612679E0,2.070988476E0
1.279652973E0,-8.474807739E-1,-6.929459572E-1,2.062522173E0,2.335036504E0
1.284395316E0,-1.804202557E0,-1.082500458E0,2.600754738E0,3.345277165E0
1.289137712E0,-2.180573940E0,-1.187762260E0,3.612726688E0,4.383774175E0
1.293880056E0,-2.195564747E0,-1.010298252E0,6.934518337E0,7.343619794E0
1.298622452E0,2.688741684E-1,-7.295782566E-1,-9.021282196E-2,7.827618439E-1
1.303364796E0,-8.233385086E-1,-1.328897476E-1,1.519034863E0,1.732920338E0
1.308107191E0,-9.022045135E-2,-2.696924210E-1,7.782680988E-1,8.285981930E-1
1.312849535E0,5.390262604E-1,-1.581121683E0,-2.492426872E0,3.000447767E0
1.317591931E0,-6.530308723E-1,-3.400793552E0,-4.224059582E0,5.462098997E0
1.322334275E0,-1.570526600E0,-4.252059460E0,-3.553199053E0,5.759495374E0
1.327076671E0,-1.137844086E0,-3.876189709E0,-1.985215187E0,4.501179308E0
1.331819066E0,1.974925995E-1,-2.839311600E0,-1.120158315E0,3.058667739E0
1.336561410E0,1.307313919E0,-1.867073536E0,-5.800317526E-1,2.351907759E0
1.341303806E0,1.849638939E0,-1.342312098E0,-1.502122879E-1,2.290312141E0
1.346046150E0,2.039529800E0,-1.054358482E0,4.650262594E-1,2.342563348E0
1.350788546E0,2.105471611E0,-9.432556629E-1,1.099380970E0,2.555656563E0
1.355530889E0,2.081987381E0,-9.110112190E-1,1.483722210E0,2.714045779E0
1.360273285E0,2.215875626E0,-9.030365944E-1,1.607188106E0,2.882470032E0
1.365015629E0,2.371088982E0,-9.220242500E-1,1.454980373E0,2.930726798E0
1.369758025E0,2.478425980E0,-1.070462227E0,1.263909221E0,2.980931270E0
1.374500421E0,2.447253227E0,-1.319068432E0,1.015140295E0,2.959645199E0
1.379242764E0,2.346919060E0,-1.655133009E0,8.451759815E-1,2.993629368E0
1.383985160E0,2.131958961E0,-2.042017698E0,7.396278381E-1,3.043375533E0
1.388727504E0,1.759460449E0,-2.514752150E0,5.837826729E-1,3.124176956E0
1.393469900E0,1.494235992E0,-3.048528194E0,5.145465136E-1,3.433805974E0
1.398212243E0,1.447250366E0,-3.346746445E0,3.789786100E-1,3.665906460E0
1.402954639E0,1.321059227E0,-3.559610367E0,3.387553692E-1,3.811925845E0
1.407696983E0,1.148723602E0,-3.746232986E0,3.153288364E-1,3.931063441E0
1.412439379E0,1.030146599E0,-3.877279758E0,5.254427195E-1,4.046058624E0
1.417181723E0,8.218193054E-1,-3.890396595E0,6.832926273E-1,4.034533610E0
1.421924118E0,7.127003670E-1,-3.716737509E0,9.664911032E-1,3.905916611E0
1.426666462E0,8.795771599E-1,-3.343314171E0,1.313899040E0,3.698342374E0
1.431408858E0,1.143144131E0,-2.898086309E0,1.581654191E0,3.493896498E0
1.436151254E0,1.205307007E0,-2.506066084E0,1.872346759E0,3.352434128E0
1.440893598E0,1.126599789E0,-2.148336411E0,2.288624287E0,3.335022870E0
1.445635993E0,1.026826382E0,-1.870346546E0,2.565980434E0,3.337188069E0
1.450378337E0,9.584369659E-1,-1.621659756E0,2.714910746E0,3.304409499E0
1.455120733E0,7.637472153E-1,-1.490154505E0,2.949876308E0,3.391996535E0
1.459863077E0,5.933747292E-1,-1.501279593E0,2.677830219E0,3.126772884E0
1.464605473E0,7.217030525E-1,-1.461305618E0,2.045549393E0,2.615442931E0
1.469347868E0,8.588356972E-1,-1.422597885E0,1.471654534E0,2.219718578E0
1.474090212E0,1.059288025E0,-1.408477306E0,8.150308132E-1,1.941693763E0
1.478832608E0,1.262886524E0,-1.380172729E0,3.787665367E-1,1.908722931E0
1.483574952E0,1.402414322E0,-1.294130564E0,2.263300419E-1,1.921656872E0
1.488317348E0,1.530131817E0,-1.168945312E0,1.086210012E-1,1.928609614E0
1.493059691E0,1.655218124E0,-9.993562698E-1,1.847529411E-2,1.933598027E0
1.497802087E0,1.696202278E0,-8.324918747E-1,-1.236618757E-1,1.893525059E0
1.502544431E0,1.643911362E0,-7.253146172E-1,-1.187498569E-1,1.800729682E0
1.507286827E0,1.792778492E0,-4.491114616E-1,1.820791960E-1,1.857123760E0
1.512029223E0,2.064355850E0,-1.034960747E-1,6.273601055E-1,2.160059540E0
1.516771566E0,2.342304230E0,1.357140541E-1,1.164476633E0,2.619315414E0
1.521513962E0,2.517594337E0,2.629060745E-1,1.684231997E0,3.040401005E0
1.526256306E0,2.696085930E0,3.441572189E-1,1.909220576E0,3.321512719E0
1.530998702E0,2.751475334E0,4.479598999E-1,1.933510065E0,3.392601621E0
1.535741046E0,2.631644249E0,5.783977509E-1,1.922194839E0,3.309823018E0
1.540483441E0,2.516130447E0,7.229695320E-1,1.790871620E0,3.171879338E0
1.545225837E0,2.388124466E0,8.622541428E-1,1.416801214E0,2.907567085E0
1.549968181E0,2.099349022E0,8.890285492E-1,8.970061541E-1,2.449950636E0
1.554710577E0,1.797872543E0,8.827648163E-1,2.204009295E-1,2.014992797E0
1.559452921E0,1.562130928E0,8.867707253E-1,-4.497520924E-1,1.851726843E0
1.564195316E0,1.379490852E0,8.226699829E-1,-1.088959932E0,1.940519169E0
1.568937660E0,1.091674805E0,6.649413109E-1,-1.691775084E0,2.120378211E0
1.573680056E0,8.703498840E-1,5.146961212E-1,-2.062337160E0,2.296879531E0
1.578422452E0,7.962369919E-1,3.675746918E-1,-2.247158527E0,2.412224274E0
1.583164796E0,8.233509064E-1,1.764488220E-1,-2.223909140E0,2.377985022E0
1.587907191E0,7.674226761E-1,2.809143066E-2,-2.030160189E0,2.170547646E0
1.592649535E0,6.692924500E-1,5.424690247E-2,-1.579692245E0,1.716485566E0
1.597391931E0,8.206148148E-1,2.449584007E-1,-1.034872651E0,1.343270150E0
1.602134275E0,1.140008926E0,5.302643776E-1,-4.714540243E-1,1.342784256E0
1.606876671E0,1.331377029E0,5.589308739E-1,1.570314169E-1,1.452455639E0
1.611619066E0,1.462110519E0,4.343085289E-1,8.213429451E-1,1.732338103E0
1.616361410E0,1.656592369E0,2.450208664E-1,1.371208668E0,2.164381370E0
1.621103806E0,1.852851868E0,9.820938110E-2,1.795188665E0,2.581745044E0
1.625846150E0,2.084591866E0,-2.332258224E-2,2.017150879E0,2.900855884E0
1.630588546E0,2.282573700E0,-1.102643013E-1,1.935233116E0,2.994566434E0
1.635330941E0,2.415575981E0,-2.461156845E-1,1.618105650E0,2.917849575E0
1.640073285E0,2.485791206E0,-4.376640320E-1,1.194060802E0,2.792219355E0
1.644815681E0,2.447771072E0,-6.630949974E-1,9.028406143E-1,2.691913701E0
1.649558025E0,2.356617928E0,-8.793396950E-1,5.965414047E-1,2.585101159E0
1.654300421E0,2.317360878E0,-1.079219818E0,4.117732048E-1,2.589292186E0
1.659042764E0,2.310497284E0,-1.238765955E0,1.674110889E-1,2.626968836E0
1.663785160E0,2.225934982E0,-1.431844473E0,7.390141487E-2,2.647721012E0
1.668527556E0,2.104361534E0,-1.553149700E0,6.172800064E-2,2.616184589E0
1.673269900E0,2.060513496E0,-1.581405401E0,1.878392696E-1,2.604197094E0
1.678012296E0,1.944268227E0,-1.536163568E0,5.125932693E-1,2.530361497E0
1.682754691E0,2.007190704E0,-1.306063175E0,8.742587566E-1,2.549302633E0
1.687497035E0,2.115942955E0,-9.667868614E-1,1.469989538E0,2.751864943E0
1.692239431E0,2.194897652E0,-7.702467442E-1,1.848917007E0,2.971422193E0
1.696981775E0,2.302926064E0,-6.556863785E-1,2.312699795E0,3.328959811E0
1.701724171E0,2.542003632E0,-4.465162754E-1,2.756899357E0,3.776460421E0
1.706466566E0,2.716938972E0,-3.410794735E-1,2.743034601E0,3.875865247E0
1.711208910E0,2.615213394E0,-1.537132263E-1,2.453593493E0,3.589302144E0
1.715951306E0,2.062829018E0,-6.350421906E-2,2.067344189E0,2.921165578E0
1.720693702E0,1.420888901E0,1.116747856E-1,1.519152403E0,2.083079583E0
1.725436046E0,7.652769089E-1,1.693882942E-1,8.394134045E-1,1.148458099E0
1.730178441E0,1.089229584E-1,2.094602585E-2,2.553367615E-2,1.138196621E-1
1.734920785E0,-5.760884285E-1,-2.111139297E-1,-8.494582176E-1,1.047867469E0
1.739663181E0,-1.274519920E0,-3.662772179E-1,-1.369570374E0,1.906379563E0
1.744405577E0,-1.775538445E0,-5.228424072E-1,-2.208870411E0,2.881841329E0
1.749147921E0,-2.626626968E0,-8.622293472E-1,-2.265623093E0,3.574305062E0
1.753890316E0,-3.160654068E0,-1.599954605E0,-4.669724941E0,5.861392318E0
1.758632660E0,-2.705693722E0,-1.814690351E0,-5.463685989E0,6.361269070E0
1.763375056E0,-2.043052673E0,-1.760577917E0,-5.371013641E0,6.010115337E0
1.768117452E0,-1.517382622E0,-1.588641644E0,-5.174673080E0,5.621696700E0
1.772859796E0,-8.876419067E-1,-1.172948122E0,-4.830672264E0,5.049664343E0
1.777602191E0,-5.320649147E-1,-6.193296909E-1,-4.325880051E0,4.402260846E0
1.782344587E0,-2.380619049E-1,-4.790425301E-2,-3.451571941E0,3.460103633E0
1.787086931E0,6.789112091E-2,5.167136192E-1,-2.851816416E0,2.899044504E0
1.791829327E0,4.829959869E-1,1.225848436E0,-2.528330564E0,2.851042784E0
1.796571723E0,1.267795563E-1,1.611709356E0,-1.764619112E0,2.393232274E0
1.801314066E0,-6.956672668E-2,2.165064096E0,-1.389220595E0,2.573378311E0
1.806056462E0,-1.050820351E0,2.070653915E0,-1.178011537E0,2.603755408E0
1.810798806E0,-2.354322433E0,1.367160559E0,-1.304652810E0,3.018953638E0
1.815541202E0,-2.822284222E0,1.164189339E0,-1.491101861E0,3.397647687E0
1.820283598E0,-2.770065308E0,1.157570124E0,-1.824887037E0,3.513323654E0
1.825025941E0,-2.497726440E0,1.191492319E0,-2.156574249E0,3.508433242E0
1.829768337E0,-2.304330349E0,8.262922764E-1,-2.242040634E0,3.319554712E0
1.834510733E0,-1.855224609E0,7.503056526E-1,-2.349064350E0,3.085922916E0
1.839253077E0,-1.269481182E0,8.273689747E-1,-1.976974487E0,2.490893417E0
1.843995473E0,-6.585302353E-1,8.331460953E-1,-1.493700862E0,1.832740230E0
1.848737868E0,3.993988037E-2,7.615077496E-1,-6.936798096E-1,1.030864164E0
1.853480212E0,2.030026436E0,1.448316336E0,6.268750191E0,6.746544041E0
1.858222608E0,1.724816322E0,1.107449293E0,4.729480743E0,5.154553655E0
1.862965004E0,7.756280899E-1,1.668841839E-1,2.759618521E0,2.871400990E0
1.867707348E0,2.482538223E-1,-6.747252941E-1,1.472910643E0,1.639008830E0
1.872449743E0,1.449584961E-1,-1.100841045E0,1.103685379E0,1.565562323E0
1.877192139E0,-2.506437302E-1,-1.286344528E0,6.282958984E-1,1.453361710E0
1.881934483E0,-7.264652252E-1,-1.060179710E0,1.056597233E-1,1.289533528E0
1.886676879E0,-9.265995026E-1,-6.858074665E-1,1.113924980E-1,1.158156642E0
1.891419275E0,-9.965076447E-1,-3.797876835E-1,5.733501911E-1,1.210783470E0
1.896161618E0,-8.796739578E-1,-4.877805710E-2,1.426931620E0,1.677003106E0
1.900904014E0,-6.152191162E-1,8.216166496E-2,2.336095095E0,2.417144057E0
1.905646410E0,-1.477346420E-1,2.116119862E-1,2.410289526E0,2.424066987E0
1.910388754E0,8.751316071E-1,3.243637085E-1,2.622222900E0,2.783364885E0
1.915131150E0,1.758144379E0,2.767062187E-1,2.903201342E0,3.405321720E0
1.919873546E0,9.548425674E-1,-2.990870476E-1,1.128867626E0,1.508482518E0
1.924615889E0,2.754125595E-1,-6.482658386E-1,-9.987744093E-1,1.222150153E0
1.929358285E0,1.387434006E-1,-7.483596802E-1,-3.878877163E0,3.952844544E0
1.934100681E0,1.054378510E0,-7.761411667E-1,-4.274410725E0,4.470424610E0
1.938843025E0,1.650532722E0,3.007030487E-2,6.278150082E-1,1.766158027E0
1.943585421E0,3.332948685E-1,-2.310252190E-2,-1.476948261E-1,3.652847622E-1
1.948327816E0,4.040880203E-1,-6.371259689E-3,-3.641355038E-1,5.439874872E-1
1.953070212E0,3.988685608E-1,-3.484120369E-1,-5.212229490E-1,7.430749887E-1
1.957812556E0,5.087308884E-1,-5.533618927E-1,-9.247336388E-1,1.191699964E0
1.962554952E0,5.605955124E-1,-8.971252441E-1,-1.443966389E0,1.790011163E0
1.967297348E0,7.168807983E-1,-8.488855362E-1,-7.031884193E-1,1.314913946E0
1.972039691E0,5.202169418E-1,-4.185144901E-1,-8.598037958E-1,1.088596625E0
1.976782087E0,-8.028640747E-1,2.219743729E-1,-1.478700161E0,1.697179281E0
1.981524483E0,-3.568043709E0,-4.922742844E-1,-4.818423748E0,6.015852167E0
1.986266879E0,-3.679338932E0,-1.275889158E0,-5.370914459E0,6.634165377E0
1.991009223E0,-2.080522060E0,-1.207744718E0,-2.998672009E0,3.844379425E0
1.995751618E0,-9.685726166E-1,-1.116380811E0,-1.026626945E0,1.799556032E0
2.000494014E0,7.147809982E0,2.929698467E0,1.734190369E1,1.898462389E1
2.005236358E0,5.322876930E0,2.848980904E0,8.696288109E0,1.058655458E1
2.009978754E0,3.939164162E0,2.860128164E0,1.245330906E1,1.337094813E1
2.014721150E0,1.198888779E0,1.301894665E0,1.279674149E1,1.291854700E1
2.019463546E0,-3.304386139E-1,-1.981520653E-2,8.862718582E0,8.868898634E0
2.024205889E0,-1.663261414E0,-8.327794075E-1,2.120372772E0,2.820627725E0
2.028948285E0,-3.415684223E0,-1.390489340E0,-6.898722649E0,7.822578443E0
2.033690681E0,-3.837378025E0,-1.972228408E0,-1.029143524E1,1.115924703E1
2.038433025E0,-3.860632420E0,-1.487482905E0,-8.693867683E0,9.628105908E0
2.043175421E0,-3.752631187E0,-1.240428567E0,-6.685821533E0,7.766666816E0
2.047917816E0,-3.016811371E0,-1.184149027E0,-4.261672497E0,5.353990310E0
2.052660212E0,-1.784264565E0,-1.258463383E0,-1.822475076E0,2.844071997E0
2.057402556E0,-4.717226028E-1,-1.529582620E0,2.626906633E-1,1.622082485E0
2.062144952E0,8.362731934E-1,-1.935910702E0,1.768224835E0,2.752039638E0
2.066887348E0,2.176240921E0,-2.214278221E0,3.534405708E0,4.704367789E0
2.071629743E0,3.351475716E0,-2.374534369E0,4.079457283E0,5.789021909E0
2.076372087E0,4.002325058E0,-2.396736622E0,3.468827248E0,5.813408190E0
2.081114483E0,4.014476776E0,-2.713979006E0,1.897414923E0,5.204026251E0
2.085856879E0,3.936860085E0,-3.502538204E0,7.541108131E-2,5.269945733E0
2.090599275E0,4.006099701E0,-4.206679821E0,-1.672525644E0,6.045025390E0
2.095341618E0,3.954121590E0,-4.184415340E0,-2.921292543E0,6.455877896E0
2.100084014E0,3.138749123E0,-3.592338800E0,-3.204315901E0,5.746675953E0
2.104826410E0,1.875690460E0,-2.789910555E0,-2.806920052E0,4.379567990E0
2.109568806E0,1.032971382E0,-2.022696972E0,-2.281240225E0,3.219066616E0
2.114311202E0,7.013206482E-1,-1.377443075E0,-1.672051549E0,2.277049947E0
2.119053546E0,7.160053253E-1,-9.632179737E-1,-1.052864075E0,1.596551049E0
2.123795941E0,7.906789780E-1,-7.008513212E-1,-4.231625795E-1,1.138170633E0
2.128538337E0,9.497652054E-1,-6.382757425E-1,1.106072664E-1,1.149645091E0
2.133280733E0,9.113645554E-1,-9.134557247E-1,3.700543642E-1,1.342358725E0
2.138023077E0,6.423168182E-1,-1.380691171E0,3.747056723E-1,1.568210236E0
2.142765473E0,1.046800613E-1,-1.869328976E0,2.758234739E-1,1.892465937E0
2.147507868E0,-4.431571960E-1,-2.153820515E0,5.874204636E-2,2.199723105E0
2.152250264E0,-1.104062080E0,-2.281545162E0,-1.262612343E-1,2.537783148E0
2.156992660E0,-1.552978516E0,-2.354542017E0,-1.803125143E-1,2.826326765E0
2.161735004E0,-1.570858002E0,-2.243197441E0,-2.707110643E-1,2.751874652E0
2.166477400E0,-1.705997467E0,-2.215141773E0,-1.499872208E-1,2.799960107E0
2.171219796E0,-1.867396832E0,-2.232017279E0,7.178974152E-2,2.911052357E0
2.175962191E0,-1.908792019E0,-2.141491652E0,3.303982019E-1,2.887669724E0
2.180704535E0,-1.923017025E0,-2.280908346E0,6.107840538E-1,3.045257710E0
2.185446931E0,-1.637398720E0,-2.342478037E0,6.109278202E-1,2.922586307E0
2.190189327E0,-1.518509865E0,-2.512282133E0,4.628890753E-1,2.971817629E0
2.194931723E0,-2.311610699E0,-4.220485687E0,-1.027045250E-1,4.813168569E0
2.199674118E0,-1.153272629E0,-2.781972408E0,-8.010232449E-2,3.012610931E0
2.204416514E0,-1.384035587E0,-1.626825571E0,1.205936670E0,2.452834931E0
2.209158858E0,-1.645604134E0,-1.390985250E0,1.382843852E0,2.560294915E0
2.213901254E0,-1.466957569E0,-1.242486835E0,3.983658552E-1,1.963271096E0
2.218643650E0,-1.264636993E0,-6.644004583E-1,-6.847317219E-1,1.584169254E0
2.223386046E0,-1.774673462E0,-1.150348186E-1,-1.228196621E0,2.161288006E0
2.228128441E0,-1.961838722E0,5.691430569E-1,-1.411842108E0,2.483149840E0
2.232870785E0,-1.908454418E0,8.899335861E-1,-1.933136106E0,2.858530262E0
2.237613181E0,-1.586376667E0,8.667249680E-1,-2.847729206E0,3.373034944E0
2.242355577E0,-1.020260811E0,6.700875759E-1,-3.886018991E0,4.073216553E0
2.247097973E0,-7.796077728E-1,2.924230099E-1,-4.354194641E0,4.433092653E0
2.251840368E0,-1.153296947E0,-1.950027943E-1,-4.286435127E0,4.443157215E0
2.256582764E0,-1.514941692E0,-2.876389027E-1,-3.602617025E0,3.918754126E0
2.261325108E0,-1.616902351E0,-3.694798946E-1,-2.778757095E0,3.236105623E0
2.266067504E0,-1.337702751E0,-3.312277794E-1,-1.847775340E0,2.305088762E0
2.270809900E0,-9.090919495E-1,-2.254886627E-1,-6.641969681E-1,1.148238182E0
2.275552296E0,-2.854690552E-1,3.485956192E-1,3.219587803E-1,5.537769798E-1
2.280294691E0,2.225217819E-1,1.110058784E0,1.200415850E0,1.650074138E0
2.285037087E0,3.334398270E-1,1.671543360E0,2.113132954E0,2.714879408E0
2.289779483E0,4.092388153E-1,2.035519838E0,2.494773865E0,3.245722424E0
2.294521827E0,4.861955643E-1,2.375844955E0,2.186293125E0,3.265103828E0
2.299264223E0,5.935926437E-1,2.877244711E0,1.932358742E0,3.516375927E0
2.304006618E0,5.310144424E-1,3.645055056E0,1.615520120E0,4.022226741E0
2.308749014E0,6.410865784E-1,4.181616783E0,1.307281494E0,4.427854540E0
2.313491410E0,9.811182022E-1,4.638077736E0,6.044552326E-1,4.779092397E0
2.318233806E0,1.459260941E0,5.142397881E0,-8.023523092E-1,5.405318463E0
2.322976202E0,8.275375366E-1,5.019658566E0,-1.611345768E0,5.336499384E0
2.327718546E0,5.420017242E-2,4.689362526E0,-2.391891956E0,5.264428335E0
2.332460941E0,3.543186188E-2,4.423817635E0,-4.893780708E0,6.597007466E0
2.337203337E0,-3.279256821E-1,4.045313358E0,-6.233931065E0,7.438682137E0
2.341945733E0,-4.372558594E-1,3.605147123E0,-6.256657124E0,7.234226761E0
2.346688129E0,4.768753052E-2,3.059752703E0,-5.359099388E0,6.171248411E0
2.351430525E0,9.070453644E-1,2.460572720E0,-4.408020973E0,5.129112818E0
2.356172921E0,1.781970024E0,1.957261801E0,-3.250078678E0,4.191575162E0
2.360915316E0,2.092085838E0,1.503777742E0,-1.759056449E0,3.119687523E0
2.365657660E0,2.097138405E0,1.324310780E0,2.396681309E-1,2.491832527E0
2.370400056E0,1.874816895E0,1.241397858E0,2.126712561E0,3.094981962E0
2.375142452E0,1.535829544E0,1.221742630E0,3.781179667E0,4.260134636E0
2.379884848E0,1.355650902E0,1.231954098E0,4.900740623E0,5.231898214E0
2.384627243E0,1.509112358E0,1.417239666E0,5.427772045E0,5.809190800E0
2.389369639E0,2.144561768E0,1.711665630E0,5.076246262E0,5.770374382E0
2.394112035E0,2.408332825E0,1.856626034E0,4.613052368E0,5.525158765E0
2.398854431E0,2.591921806E0,2.095875740E0,3.836847067E0,5.082533736E0
2.403596827E0,2.106256485E0,2.257530689E0,3.011209965E0,4.312788732E0
2.408339171E0,1.274169922E0,2.122523308E0,2.191456795E0,3.306220964E0
2.413081618E0,8.073835373E-1,1.887804508E0,9.211919308E-1,2.250392990E0
2.417823962E0,7.951946259E-1,1.503694057E0,-4.624757767E-1,1.762757543E0
2.422566358E0,1.400776386E0,9.443631172E-1,-1.895261049E0,2.538899491E0
2.427308754E0,2.018271923E0,2.580919266E-1,-2.911200285E0,3.551777034E0
2.432051150E0,2.813569546E0,-2.969126701E-1,-2.957388639E0,4.092734818E0
2.436793546E0,3.640097141E0,-5.351858139E-1,-1.631527901E0,4.024750221E0
2.441535941E0,4.596170902E0,-8.301773071E-1,-1.063612580E0,4.790120358E0
2.446278337E0,5.035591602E0,-9.440259933E-1,-4.896383286E-1,5.146660427E0
2.451020733E0,4.733387470E0,-1.104029655E0,3.930284977E-1,4.876300834E0
2.455763129E0,4.303606987E0,-1.147587299E0,1.150377512E0,4.600147620E0
2.460505525E0,3.475036144E0,-1.261303425E0,1.864938974E0,4.140623131E0
2.465247921E0,2.695787430E0,-1.514396667E0,1.865007401E0,3.610944438E0
2.469990316E0,1.985989571E0,-1.854474068E0,1.310497999E0,3.016725650E0
2.474732660E0,1.111024857E0,-2.358919382E0,6.223638058E-1,2.680711396E0
2.479475108E0,8.719668388E-1,-2.633521557E0,-2.502915859E-1,2.785391864E0
2.484217452E0,1.629136562E0,-2.559042215E0,-1.806779385E0,3.530897158E0
2.488959848E0,2.418525219E0,-2.191241264E0,-3.388268948E0,4.704377639E0
2.493702243E0,2.421293259E0,-1.649808407E0,-4.311634541E0,5.212937870E0
2.498444639E0,2.027253628E0,-6.052842140E-1,-4.872679710E0,5.312168466E0
2.503187035E0,2.058628559E0,7.068200111E-1,-5.921854019E0,6.309191794E0
2.507929431E0,2.963671684E0,1.907625198E0,-7.120312691E0,7.944887448E0
2.512671827E0,3.982358932E0,2.588169098E0,-8.061208725E0,9.356328770E0
2.517414223E0,5.022740841E0,2.852519512E0,-8.380754471E0,1.017849884E1
2.522156618E0,5.031779289E0,2.340874195E0,-7.351041794E0,9.210662857E0
2.526899014E0,4.962855339E0,1.330596447E0,-6.072098732E0,7.954294628E0
2.531641410E0,5.404572487E0,5.950636864E-1,-4.066865444E0,6.789911568E0
2.536383806E0,4.180727005E0,7.396697998E-3,-1.080163121E0,4.318018686E0
2.541126202E0,1.238204479E0,4.305043221E-1,2.707170725E0,3.007865961E0
2.545868598E0,-2.562321186E0,1.315968513E0,7.578969955E0,8.107900380E0
2.550610993E0,-3.107310295E0,2.828631878E0,1.066878510E1,1.146645154E1
2.555353389E0,-4.010047913E-1,4.453163624E0,9.080104828E0,1.012125362E1
2.560095785E0,1.536496639E0,5.320152760E0,6.289701462E0,8.380047242E0
2.564838181E0,2.312649250E0,4.928510189E0,4.554124832E0,7.097789249E0
2.569580577E0,2.639552116E0,3.557274342E0,3.580543041E0,5.695763740E0
2.574322973E0,2.948740005E0,2.034074306E0,3.177354813E0,4.788330556E0
2.579065368E0,3.717166901E0,9.881873131E-1,2.840353012E0,4.781364781E0
2.583807764E0,5.034502029E0,5.718131065E-1,2.464381218E0,5.634390446E0
2.588550160E0,4.943496704E0,3.552341461E-1,1.268024921E0,5.115880976E0
2.593292556E0,3.644415855E0,4.462862015E-1,1.374974251E-1,3.674213364E0
2.598034952E0,2.057574272E0,5.685887337E-1,-9.441875219E-1,2.334179751E0
2.602777348E0,-2.965750694E-1,6.265087128E-1,-1.566520333E0,1.713025363E0
2.607519743E0,-1.738144875E0,7.916769981E-1,-2.094750643E0,2.834762835E0
2.612262139E0,-2.310202599E0,1.090868950E0,-1.792975903E0,3.121184663E0
2.617004535E0,-2.148592949E0,1.303756237E0,-6.129583120E-1,2.586880337E0
2.621746931E0,-2.074420452E0,1.138852596E0,4.334143400E-1,2.405837367E0
2.626489327E0,-2.417099476E0,4.753513336E-1,1.229595304E0,2.753222362E0
2.631231723E0,-3.171288490E0,-5.394687653E-1,1.662066340E0,3.620850971E0
2.635974118E0,-3.424621344E0,-1.491853237E0,2.127408028E0,4.298781495E0
2.640716514E0,-2.948899984E0,-2.325685501E0,1.761626959E0,4.148271171E0
2.645458910E0,-2.568092823E0,-3.094757080E0,7.351380587E-1,4.088159745E0
2.650201306E0,-2.200428486E0,-3.822100639E0,1.053359509E-1,4.411511587E0
2.654943702E0,-1.711261749E0,-4.598519802E0,-3.676596880E-1,4.920363278E0
2.659686098E0,2.920770645E-2,-4.825949192E0,-2.985964298E0,5.675087795E0
2.664428493E0,-7.259435654E-1,-5.077804565E0,-4.439674377E0,6.783937046E0
2.669170889E0,-2.787204504E0,-5.051190376E0,-2.292708874E0,6.208022805E0
2.673913285E0,-4.049592972E0,-4.519006729E0,-6.051290035E-2,6.068301811E0
2.678655681E0,-3.950410604E0,-3.256401062E0,-2.025482655E-1,5.123564933E0
2.683398077E0,-4.319229126E0,-1.335604668E0,-1.732112527E0,4.841466088E0
2.688140473E0,-7.342509270E0,-1.551613808E-1,-2.125260115E0,7.645472385E0
2.692882868E0,-7.815206528E0,8.158092499E-1,2.550404072E-1,7.861809169E0
2.697625264E0,-5.975318432E0,1.102885246E0,3.438270092E0,6.981582017E0
2.702367712E0,-3.291948795E0,9.822545052E-1,4.784049988E0,5.889727079E0
2.707110108E0,-1.878582001E0,1.007467747E0,4.157590866E0,4.672218253E0
2.711852504E0,-1.769622326E0,6.339025497E-1,3.575490952E0,4.039496400E0
2.716594900E0,-1.792390347E0,-2.214851379E-1,4.077044487E0,4.459149086E0
2.721337296E0,-1.718322754E0,-1.350443840E0,4.360783100E0,4.877782375E0
2.726079691E0,-1.367846966E0,-2.420604706E0,3.935470581E0,4.818533092E0
2.730822087E0,-1.322080612E0,-3.092748165E0,3.227249622E0,4.661344064E0
2.735564483E0,-6.184105873E-1,-3.346860409E0,2.817951441E0,4.418682674E0
2.740306879E0,1.564968586E0,-3.231117725E0,3.079368591E0,4.729879423E0
2.745049275E0,3.102996349E0,-3.170390606E0,3.303326607E0,5.530997162E0
2.749791671E0,3.050258160E0,-3.168898582E0,3.250772715E0,5.469325032E0
2.754534066E0,3.181577206E0,-3.182454586E0,3.326672077E0,5.596177072E0
2.759276462E0,2.296084881E0,-3.435726166E0,2.968504667E0,5.088048744E0
2.764018910E0,8.196530342E-1,-3.624450922E0,2.548705816E0,4.506037829E0
2.768761306E0,-6.017117500E-1,-3.460054874E0,2.404704332E0,4.256364610E0
2.773503702E0,-1.670450211E0,-3.174464226E0,2.293080568E0,4.257445892E0
2.778246098E0,-2.320942402E0,-2.956700802E0,1.532703757E0,4.059314483E0
2.782988493E0,-3.828967571E0,-2.815905571E0,-1.781964302E-1,4.756266478E0
2.787730889E0,-4.091529846E0,-2.470823765E0,-8.768298030E-1,4.859466747E0
2.792473285E0,-3.665624380E0,-2.018917084E0,-1.812209606E0,4.560365330E0
2.797215681E0,-3.286562204E0,-1.490374088E0,-2.820279121E0,4.580030608E0
2.801958077E0,-2.715985060E0,-8.554158211E-1,-3.551923037E0,4.552413462E0
2.806700473E0,-1.838117123E0,-2.994065285E-1,-4.290713787E0,4.677450548E0
2.811442921E0,-1.054122925E0,8.129453659E-2,-5.127451897E0,5.235317268E0
2.816185316E0,1.248836517E-1,3.623042107E-1,-5.555052757E0,5.568255688E0
2.820927712E0,1.484282017E0,6.740689278E-1,-6.159245491E0,6.371323806E0
2.825670108E0,2.493797302E0,9.464373589E-1,-7.063768387E0,7.550602127E0
2.830412504E0,3.502682209E0,1.126851559E0,-8.239018440E0,9.023303273E0
2.835154900E0,3.376325607E0,8.654742241E-1,-9.354784966E0,9.983016678E0
2.839897296E0,2.556734562E0,1.292901039E-1,-9.202934265E0,9.552361312E0
2.844639691E0,2.818474770E0,-1.001507759E0,-8.336197853E0,8.856580179E0
2.849382139E0,2.835444927E0,-1.942662239E0,-6.959389210E0,7.761880100E0
2.854124535E0,2.211724758E0,-2.657216549E0,-5.293960094E0,6.322858505E0
2.858866931E0,1.596427917E0,-3.368896484E0,-3.234330654E0,4.935477727E0
2.863609327E0,7.865185738E-1,-3.992704630E0,-1.425969720E0,4.312040279E0
2.868351723E0,2.940845490E-2,-4.377491951E0,-2.217545509E-1,4.383203819E0
2.873094118E0,-5.659785271E-1,-4.556706905E0,5.620525479E-1,4.625993145E0
2.877836514E0,-9.425244331E-1,-4.612226963E0,6.594458818E-1,4.753510149E0
2.882578910E0,-7.908506393E-1,-4.645442486E0,1.952558160E-1,4.716323299E0
2.887321358E0,-1.236663342E0,-4.506206989E0,-7.082257271E-1,4.726184648E0
2.892063754E0,-1.905609131E0,-4.173389435E0,-1.529734492E0,4.836177535E0
2.896806150E0,-2.581983566E0,-3.857401609E0,-2.058433533E0,5.077729308E0
2.901548546E0,-3.435915709E0,-3.533792019E0,-2.465250969E0,5.510958640E0
2.906290941E0,-4.369839191E0,-2.981946468E0,-3.033043385E0,6.098102284E0
2.911033337E0,-4.992066860E0,-2.412122250E0,-2.529382229E0,6.094000307E0
2.915775785E0,-5.243132591E0,-1.482628822E0,-1.607798457E0,5.680989656E0
2.920518181E0,-4.385045052E0,-3.435368538E-1,-4.486081600E-1,4.421299238E0
2.925260577E0,-2.645382166E0,5.078110695E-1,5.125510097E-1,2.742011565E0
2.930002973E0,-1.198711395E0,3.789458275E-1,9.717082381E-1,1.588938592E0
2.934745368E0,-5.288162231E-1,2.265982628E-1,1.797176123E0,1.887017590E0
2.939487764E0,-4.654273987E-1,-2.263422012E-1,2.491937160E0,2.545113802E0
2.944230160E0,-1.056959629E0,-1.019176960E0,3.291835308E0,3.604450725E0
2.948972608E0,-1.552419662E0,-1.794459820E0,4.332524300E0,4.939722630E0
2.953715004E0,-1.604643822E0,-2.088214874E0,5.509274960E0,6.106360105E0
2.958457400E0,-1.448262691E0,-1.831665039E0,6.450896263E0,6.860504663E0
2.963199796E0,-1.387603283E0,-1.252840042E0,6.713550091E0,6.968988870E0
2.967942191E0,-1.260215759E0,-3.410272598E-1,6.308428288E0,6.442104533E0
2.972684587E0,-1.273386955E0,6.989765167E-1,5.472544670E0,5.662051543E0
2.977427035E0,-1.971415997E0,2.218169212E0,4.033140659E0,5.007292608E0
2.982169431E0,-3.557338715E0,3.511802197E0,3.338675022E0,6.011169961E0
2.986911827E0,-3.654059649E0,4.805392742E0,2.404179096E0,6.498001881E0
2.991654223E0,-3.783846378E0,5.862751484E0,6.326321363E-1,7.006395064E0
2.996396618E0,-2.986305952E0,6.958381176E0,-1.133934855E0,7.656559285E0
3.001139014E0,-3.760457039E-1,7.897701740E0,-1.155346513E0,7.990615040E0
3.005881462E0,2.402947903E0,9.127202034E0,-2.317717075E-1,9.441064226E0
3.010623858E0,2.938545704E0,9.111909866E0,1.037132382E0,9.630036129E0
3.015366254E0,1.685850620E0,8.599050522E0,2.111408710E0,9.013534764E0
3.020108650E0,2.349839211E0,8.272949219E0,3.682961941E0,9.355620864E0
3.024851046E0,3.503691673E0,7.776648045E0,5.280869007E0,1.003193339E1
3.029593493E0,4.172706127E0,7.022494793E0,6.295902252E0,1.031335516E1
3.034335889E0,4.254133701E0,6.189016342E0,6.390135765E0,9.860801789E0
3.039078285E0,4.195718288E0,5.421097279E0,6.336492538E0,9.335067506E0
3.043820681E0,4.394944191E0,4.611890316E0,6.222586632E0,8.905372037E0
3.048563077E0,4.589240074E0,3.706952572E0,5.623775482E0,8.150427750E0
3.053305525E0,4.844408989E0,2.902532578E0,4.981164932E0,7.530272100E0
3.058047921E0,5.551951408E0,2.370095253E0,4.710794449E0,7.657225365E0
3.062790316E0,6.529380798E0,1.933835030E0,4.118007660E0,7.958047412E0
3.067532712E0,7.468228817E0,1.379835129E0,3.322034359E0,8.289408841E0
3.072275108E0,8.242101669E0,6.643295288E-1,2.740506887E0,8.711139515E0
3.077017504E0,8.736413956E0,-2.107572556E-1,1.934071898E0,8.950417953E0
3.081759952E0,8.754449844E0,-1.135392666E0,1.199465513E0,8.908884672E0
3.086502348E0,8.371645927E0,-2.087984085E0,-1.795516014E-1,8.629969400E0
3.091244743E0,8.084362030E0,-3.092581272E0,-2.039084673E0,8.892628108E0
3.095987139E0,7.225352287E0,-4.143761158E0,-3.534087420E0,9.047996800E0
3.100729535E0,6.346875668E0,-5.278238773E0,-3.570029259E0,8.993761404E0
3.105471983E0,5.229265213E0,-6.149663448E0,-2.512317896E0,8.454307565E0
3.110214379E0,4.260087013E0,-6.814458847E0,-2.071763277E0,8.299240556E0
3.114956775E0,3.644932747E0,-7.195675373E0,-1.947384119E0,8.297926471E0
3.119699171E0,3.129693270E0,-7.336100578E0,-1.724371552E0,8.160074075E0
3.124441566E0,2.636923552E0,-7.376564026E0,-1.462601781E0,7.969081918E0
3.129184014E0,2.274144888E0,-7.009301186E0,-1.816708922E0,7.589629068E0
3.133926410E0,2.025704622E0,-5.953685284E0,-2.249515057E0,6.679084193E0
3.138668806E0,1.826853514E0,-6.574280739E0,-3.773378134E-1,6.833808954E0
3.143411202E0,1.083038807E0,-7.581810951E0,8.461804390E-1,7.705378102E0
3.148153650E0,3.021674156E-1,-7.710391045E0,5.419445038E-1,7.735317644E0
3.152896046E0,-4.494147301E-1,-7.329532623E0,-1.252313852E-1,7.344365526E0
3.157638441E0,-8.541317582E-1,-6.915878773E0,-5.247427821E-1,6.988152492E0
3.162380837E0,-1.289809108E0,-6.497895718E0,-4.491281509E-2,6.624822522E0
3.167123233E0,-1.836651802E0,-6.371460915E0,7.731241584E-1,6.675816429E0
3.171865681E0,-2.251787663E0,-5.981351852E0,1.185514450E0,6.500197087E0
3.176608077E0,-2.369099140E0,-5.239675999E0,4.555394650E-1,5.768392455E0
3.181350473E0,-2.433646202E0,-4.391013145E0,1.182221651E0,5.157642709E0
3.186092868E0,-2.163325071E0,-3.204176903E0,5.217853546E0,6.494052711E0
3.190835316E0,-2.007420301E0,-2.610144138E0,5.951286793E0,6.801500068E0
3.195577712E0,-2.120792627E0,-2.851896286E0,2.825464010E0,4.540299623E0
3.200320108E0,-2.109989643E0,-3.218134880E0,8.971744180E-1,3.951375752E0
3.205062504E0,-2.013403654E0,-3.601523876E0,1.621335745E0,4.433226602E0
3.209804952E0,-2.269618750E0,-3.780238628E0,2.075390339E0,4.873255423E0
3.214547348E0,-2.298846722E0,-3.936800003E0,2.250934124E0,5.084269362E0
3.219289743E0,-2.888426781E0,-4.361236095E0,2.358899117E0,5.738274531E0
3.224032139E0,-4.216842651E0,-4.772338867E0,2.992926359E0,7.036660316E0
3.228774535E0,-6.737041950E0,-5.098004818E0,4.332326889E0,9.494548101E0
3.233516983E0,-8.834506989E0,-5.187594414E0,5.537638187E0,1.164581840E1
3.238259379E0,-1.021691990E1,-5.021965504E0,6.355494976E0,1.303832451E1
3.243001775E0,-1.090606594E1,-4.727303505E0,6.400241852E0,1.350010254E1
3.247744171E0,-1.072680378E1,-4.481605530E0,6.533578396E0,1.333554476E1
3.252486618E0,-9.915948868E0,-4.261265755E0,6.646292210E0,1.267507901E1
3.257229014E0,-8.947269440E0,-4.154426098E0,5.663518906E0,1.137489925E1
3.261971410E0,-7.870556831E0,-4.007095814E0,4.365743160E0,9.852014770E0
3.266713806E0,-6.909914970E0,-3.698931694E0,3.322870731E0,8.512960147E0
3.271456202E0,-6.235478401E0,-3.308658123E0,2.828142881E0,7.604393574E0
3.276198650E0,-5.733459473E0,-2.826345444E0,1.989970684E0,6.694831545E0
3.280941046E0,-5.417463303E0,-2.270738602E0,1.107978225E0,5.977690037E0
3.285683441E0,-4.954299927E0,-1.658235550E0,3.696494102E-1,5.237506429E0
3.290425837E0,-4.299628258E0,-8.400144577E-1,-4.754061699E-1,4.406635732E0
3.295168285E0,-3.536101103E0,8.633041382E-2,-1.491264105E0,3.838662864E0
3.299910681E0,-3.072324991E0,9.442119598E-1,-2.213557720E0,3.902634348E0
3.304653077E0,-2.977577209E0,1.915533066E0,-2.591153145E0,4.387403285E0
3.309395473E0,-2.888364792E0,2.959487915E0,-2.629683018E0,4.900658391E0
3.314137921E0,-2.924698591E0,4.052053452E0,-2.676509857E0,5.668924416E0
3.318880316E0,-2.921709061E0,5.307937622E0,-2.832029343E0,6.688121996E0
3.323622712E0,-2.740829706E0,6.696070671E0,-3.347902298E0,7.972324611E0
3.328365108E0,-2.350814581E0,8.046962738E0,-4.028776169E0,9.301127669E0
3.333107504E0,-1.581013799E0,9.284867287E0,-4.926302433E0,1.062905550E1
3.337849952E0,-4.250878096E-1,1.025299168E1,-5.742713451E0,1.175939181E1
3.342592348E0,1.085676908E0,1.057000637E1,-6.105803013E0,1.225498101E1
3.347334743E0,2.494166613E0,1.027092743E1,-6.112004280E0,1.220939858E1
3.352077139E0,3.640523911E0,9.825607300E0,-5.717868328E0,1.193691716E1
3.356819587E0,4.484595776E0,9.076530457E0,-4.936012745E0,1.126318011E1
3.361561983E0,5.155758858E0,8.059804916E0,-3.945864677E0,1.034950012E1
3.366304379E0,5.526187420E0,6.928442955E0,-3.096722603E0,9.387851728E0
3.371046775E0,5.634794235E0,5.806425095E0,-2.453157187E0,8.454789095E0
3.375789223E0,5.474581718E0,4.616529465E0,-1.624995232E0,7.343296180E0
3.380531618E0,4.978451729E0,3.577860832E0,-7.744067907E-1,6.179464024E0
3.385274014E0,4.227306843E0,2.693925858E0,2.546377182E-1,5.019183204E0
3.390016410E0,3.220163345E0,2.078113556E0,1.008125305E0,3.962868223E0
3.394758858E0,2.257238388E0,1.764803886E0,1.606105804E0,3.284696904E0
3.399501254E0,1.535650373E0,1.704712868E0,1.974589348E0,3.027089546E0
3.404243650E0,1.283742309E0,1.908623695E0,2.110886574E0,3.121967465E0
3.408986046E0,1.152957678E0,2.313523293E0,1.994413614E0,3.264871682E0
3.413728493E0,9.857872128E-1,2.792346001E0,1.335340261E0,3.248400565E0
3.418470889E0,6.914340854E-1,3.170722008E0,3.212404251E-1,3.261097140E0
3.423213285E0,4.377660751E-1,3.494844437E0,-1.083926558E0,3.685169407E0
3.427955681E0,2.542642355E-1,3.837326050E0,-2.651183128E0,4.671027028E0
3.432698129E0,2.428429127E-1,4.074680328E0,-4.173248768E0,5.837636314E0
3.437440525E0,4.268882275E-1,4.243684769E0,-5.457028389E0,6.926056079E0
3.442182921E0,9.283534288E-1,4.438237190E0,-6.332671642E0,7.788614740E0
3.446925316E0,1.412313223E0,4.589189529E0,-6.598313332E0,8.160455134E0
3.451667764E0,2.017905712E0,4.818516731E0,-6.235402584E0,8.134512422E0
3.456410160E0,2.618849277E0,5.004044533E0,-5.552291870E0,7.920023878E0
3.461152556E0,3.175161362E0,5.193450928E0,-4.607841492E0,7.634512782E0
3.465894952E0,3.608418941E0,5.341108322E0,-3.680806875E0,7.422699281E0
3.470637348E0,4.074882507E0,5.349010468E0,-2.951839924E0,7.343700659E0
3.475379796E0,4.627940655E0,5.305793762E0,-2.307159185E0,7.408931479E0
3.480122191E0,4.878112316E0,5.201833725E0,-1.498914003E0,7.287097986E0
3.484864587E0,4.921226501E0,4.965340614E0,-7.005156279E-1,7.025937648E0
3.489606983E0,4.694397926E0,4.586805344E0,-1.621384621E-1,6.565245162E0
3.494349431E0,4.469316483E0,4.176384926E0,1.360510588E-1,6.118454932E0
3.499091827E0,4.336352348E0,3.856318474E0,2.897216082E-1,5.810256661E0
3.503834223E0,4.281075954E0,3.505032539E0,2.382675409E-1,5.538017321E0
3.508576618E0,4.656305313E0,3.264247894E0,2.801898718E-1,5.693417238E0
3.513319066E0,5.310790539E0,3.060486794E0,1.249369383E-1,6.130798056E0
3.518061462E0,5.523894310E0,2.753368378E0,-8.584278822E-2,6.172666746E0
3.522803858E0,5.244535446E0,2.506155014E0,-4.265792966E-1,5.828201686E0
3.527546306E0,4.521612167E0,2.359692574E0,-8.349685073E-1,5.168200658E0
3.532288702E0,3.640544415E0,2.380781174E0,2.811095119E-1,4.358979833E0
3.537031098E0,2.950600863E0,2.229642868E0,1.034597516E0,3.840279259E0
3.541773493E0,2.413332939E0,2.088206291E0,4.816322029E-1,3.227499182E0
3.546515941E0,1.975940585E0,2.042415619E0,1.854878664E-1,2.847842781E0
3.551258337E0,1.621532559E0,2.189945221E0,2.499465644E-1,2.736366422E0
3.556000733E0,1.229818463E0,2.365220070E0,4.469678700E-1,2.703053775E0
3.560743129E0,5.674113035E-1,2.455370903E0,6.784533262E-1,2.609808570E0
3.565485525E0,-3.232526779E-2,2.531770706E0,7.175265551E-1,2.631682388E0
3.570227973E0,-4.416910410E-1,2.620361328E0,8.446538448E-1,2.788337243E0
3.574970368E0,-3.694074154E-1,2.888306618E0,1.332902074E0,3.202406110E0
3.579712764E0,2.915418148E-2,3.144062996E0,1.979147434E0,3.715239784E0
3.584455160E0,4.291408658E-1,3.349401474E0,2.494736195E0,4.198375971E0
3.589197608E0,5.797266364E-1,3.633489609E0,3.204120636E0,4.879007969E0
3.593940004E0,8.594679236E-1,3.852818489E0,3.773577690E0,5.461024080E0
3.598682400E0,1.223189831E0,3.902386665E0,4.733909130E0,6.255774189E0
3.603424796E0,1.144568324E0,3.650963783E0,5.675076962E0,6.844419019E0
3.608167243E0,1.169224143E0,3.168361664E0,5.969909191E0,6.858966138E0
3.612909639E0,8.493928909E-1,2.383171082E0,6.119742870E0,6.622101289E0
3.617652035E0,1.049685597E0,1.649836540E0,5.789926529E0,6.111223255E0
3.622394431E0,2.756889582E0,1.049956322E0,5.308271885E0,6.072939885E0
3.627136879E0,1.547955990E0,-2.728729248E-1,5.416686535E0,5.640134785E0
3.631879275E0,3.363831043E-1,-1.464465141E0,4.985320091E0,5.206844357E0
3.636621671E0,4.949128628E-2,-2.109059811E0,4.104583263E0,4.614995822E0
3.641364066E0,3.431936502E-1,-2.752401829E0,3.129851580E0,4.182041202E0
3.646106514E0,1.541444421E0,-3.370324135E0,2.472120762E0,4.454942956E0
3.650848910E0,7.316922545E-1,-3.766858578E0,2.876047373E0,4.795440083E0
3.655591306E0,-5.346512794E-1,-4.231879711E0,2.834941387E0,5.121674584E0
3.660333702E0,-2.154881477E0,-4.696379185E0,2.384959936E0,5.691003912E0
3.665076150E0,-3.169151306E0,-4.866558075E0,1.996865988E0,6.141203569E0
3.669818546E0,-3.432317495E0,-4.790792942E0,1.149891734E0,6.004560883E0
3.674560941E0,-3.497061729E0,-4.670371056E0,3.736683130E-1,5.846489078E0
3.679303337E0,-3.096395969E0,-4.373964787E0,-8.843653202E-1,5.431513415E0
3.684045785E0,-2.419862747E0,-3.980630875E0,-1.639723539E0,4.938608221E0
3.688788181E0,-1.905645967E0,-3.471421242E0,-2.303429127E0,4.581270318E0
3.693530577E0,-1.211263537E0,-3.004213810E0,-2.857292175E0,4.319326168E0
3.698272973E0,-6.309460402E-1,-2.535588264E0,-2.752940893E0,3.795521613E0
3.703015421E0,1.435593963E-1,-2.301778793E0,-1.910240889E0,2.994631057E0
3.707757816E0,5.862317681E-1,-2.079737186E0,-8.177635670E-1,2.310348827E0
3.712500212E0,8.811146021E-1,-2.005433083E0,3.758209944E-1,2.222468495E0
3.717242608E0,1.006113529E0,-2.009032249E0,1.576958179E0,2.745045011E0
3.721985056E0,9.795682430E-1,-2.051943779E0,2.624798298E0,3.472692517E0
3.726727452E0,8.028601408E-1,-2.196122169E0,3.499316216E0,4.208651918E0
3.731469848E0,4.987005591E-1,-2.415122032E0,4.148643970E0,4.826257709E0
3.736212243E0,1.256339550E-1,-2.632370949E0,4.578010082E0,5.282360932E0
3.740954639E0,-1.018333435E-1,-2.828866959E0,4.657965660E0,5.450642383E0
3.745697087E0,-7.884931564E-2,-2.949756622E0,4.514827728E0,5.393602763E0
3.750439483E0,1.060915589E-1,-2.844604492E0,4.501801014E0,5.326278485E0
3.755181879E0,2.761811018E-1,-2.475585461E0,4.471820831E0,5.118787056E0
3.759924275E0,2.118533850E-1,-2.185188293E0,4.237092018E0,4.772093723E0
3.764666723E0,2.853391171E-1,-1.744004726E0,3.894356728E0,4.276562313E0
3.769409118E0,8.577376008E-1,-1.221752167E0,3.054699898E0,3.399938766E0
3.774151514E0,8.538620472E-1,-1.001194954E0,2.375549316E0,2.715641045E0
3.778893910E0,5.809868574E-1,-9.672412872E-1,2.016659737E0,2.310847881E0
3.783636358E0,2.087748647E-1,-1.016983986E0,1.836368799E0,2.109524529E0
3.788378754E0,-3.236485720E-1,-1.174410820E0,1.820070863E0,2.190124909E0
3.793121150E0,-9.169636965E-1,-1.477879524E0,1.733057261E0,2.455287718E0
3.797863546E0,-1.062707901E0,-1.781410217E0,1.721554637E0,2.695648496E0
3.802605993E0,-1.317715049E0,-2.159118176E0,2.116196156E0,3.297946393E0
3.807348389E0,-1.547174573E0,-2.498522758E0,2.757054567E0,4.029604822E0
3.812090785E0,-1.661618590E0,-2.761418819E0,3.242785454E0,4.571877922E0
3.816833181E0,-1.738575697E0,-2.947961807E0,3.478233337E0,4.879675340E0
3.821575577E0,-1.960721374E0,-3.103871346E0,3.394263744E0,4.999947200E0
3.826318025E0,-2.120470285E0,-3.210329533E0,3.136683464E0,4.964009780E0
3.831060421E0,-2.014671803E0,-3.238844872E0,2.844110012E0,4.757938664E0
3.835802816E0,-1.815223932E0,-3.146653652E0,2.291161060E0,4.294867418E0
3.840545212E0,-1.791393876E0,-2.821984291E0,1.029370546E0,3.497469239E0
3.845287660E0,-2.164618015E0,-2.468944073E0,-4.879007339E-1,3.319533569E0
3.850030056E0,-2.436645985E0,-2.111756325E0,-1.591633797E0,3.595838786E0
3.854772452E0,-2.296347618E0,-1.826857567E0,-2.265413523E0,3.707117395E0
3.859514848E0,-2.100722790E0,-1.816936493E0,-2.481996775E0,3.724862742E0
3.864257296E0,-1.553567410E0,-1.825096130E0,-2.323543549E0,3.338173483E0
3.868999691E0,-9.394806623E-1,-1.700026035E0,-2.455944777E0,3.131194210E0
3.873742087E0,-6.220217943E-1,-1.673478603E0,-2.928064108E0,3.429431610E0
3.878484483E0,-3.454142809E-1,-1.635241985E0,-3.528655052E0,3.904450519E0
3.883226931E0,4.111421108E-2,-1.621309280E0,-4.346414566E0,4.639143643E0
3.887969327E0,3.587753177E-1,-1.531539917E0,-5.322462082E0,5.550039357E0
3.892711723E0,6.254208088E-1,-1.517098427E0,-6.448626041E0,6.654135304E0
3.897454118E0,6.674880385E-1,-1.564058304E0,-7.628454208E0,7.815697811E0
3.902196514E0,8.421233892E-1,-1.519418716E0,-7.989626408E0,8.176303271E0
3.906938962E0,1.379036903E0,-1.239536762E0,-7.613776207E0,7.836311779E0
3.911681358E0,1.787231565E0,-9.537153244E-1,-6.813452721E0,7.108228159E0
3.916423754E0,2.151785135E0,-5.129022598E-1,-5.498066902E0,5.926380654E0
3.921166150E0,2.530991554E0,1.004896164E-1,-3.839360952E0,4.599642261E0
3.925908598E0,2.906569481E0,7.605142593E-1,-2.114172459E0,3.673724714E0
3.930650993E0,3.275245667E0,1.446274757E0,-7.244617939E-1,3.652915239E0
3.935393389E0,3.632507086E0,2.067018509E0,-4.307746887E-3,4.179436780E0
3.940135785E0,3.948699474E0,2.512392044E0,2.619147301E-2,4.680280688E0
3.944878181E0,4.166070461E0,2.753005028E0,-3.938894272E-1,5.009024721E0
3.949620629E0,4.258158684E0,2.740427971E0,-9.227023125E-1,5.147158478E0
3.954363025E0,4.003943920E0,2.388196945E0,-1.194105387E0,4.812581349E0
3.959105421E0,3.483155966E0,1.763305664E0,-1.348157883E0,4.130272633E0
3.963847816E0,2.777390003E0,9.879436493E-1,-1.382757902E0,3.256063160E0
3.968590264E0,1.957792282E0,1.435441971E-1,-1.462923765E0,2.448203729E0
3.973332660E0,1.195687532E0,-7.148370743E-1,-1.667310715E0,2.172690898E0
3.978075056E0,6.867104769E-1,-1.534659863E0,-2.084357023E0,2.677927627E0
3.982817452E0,4.685384929E-1,-2.543382645E0,-2.637910843E0,3.694170707E0
3.987559848E0,5.478532910E-1,-3.788882732E0,-3.089475393E0,4.919413969E0
3.992302296E0,7.855760455E-1,-5.094183922E0,-3.282092571E0,6.110644090E0
3.997044691E0,1.100141287E0,-6.342445374E0,-3.513716459E0,7.333698080E0
4.001787087E0,1.381357193E0,-7.476963997E0,-3.982145071E0,8.583158956E0
4.006529483E0,1.744014025E0,-8.385952950E0,-4.210293770E0,9.544232050E0
4.011271931E0,2.156981945E0,-8.935803413E0,-3.572282314E0,9.862167849E0
4.016014327E0,2.577278376E0,-8.884981155E0,-1.807528973E0,9.426155894E0
4.020756723E0,3.223785400E0,-7.951242924E0,6.444723606E-1,8.604092106E0
4.025499118E0,4.015425682E0,-6.156390667E0,2.859163761E0,7.886672737E0
4.030241514E0,4.297336578E0,-3.950357914E0,4.489042759E0,7.363690257E0
4.034983962E0,4.102437973E0,-2.104983807E0,6.560966492E0,8.019179226E0
4.039726358E0,2.568850040E0,2.763624191E-1,9.755081177E0,1.009143079E1
4.044468754E0,9.796979427E-1,3.020360947E0,1.393601990E1,1.429318155E1
4.049211150E0,8.879194260E-1,5.126124382E0,1.607409859E1,1.689503470E1
4.053953546E0,-9.019396305E-1,1.059980583E1,2.077224922E1,2.333786015E1
4.058695993E0,-2.686440706E0,1.806331635E1,2.112618446E1,2.792518632E1
4.063438389E0,-3.788952827E0,2.215570068E1,1.529371071E1,2.718692376E1
4.068180785E0,-4.870190620E0,2.382506180E1,8.495664597E0,2.575904974E1
4.072923181E0,-6.336959362E0,2.414231873E1,2.378034353E0,2.507316603E1
4.077665577E0,-8.544104576E0,2.287517357E1,-1.924825907E0,2.449449415E1
4.082408025E0,-1.234357452E1,1.924991226E1,-5.031834602E0,2.341457481E1
4.087150421E0,-1.670093346E1,1.366431999E1,-6.628725052E0,2.257376386E1
4.091892816E0,-1.923820686E1,8.539849281E0,-6.187859535E0,2.193917124E1
4.096635212E0,-1.729424477E1,4.634733200E0,-4.205799580E0,1.839185700E1
4.101377660E0,-1.152241230E1,2.514015198E0,-1.397284985E0,1.187596998E1
4.106120056E0,-6.216185570E0,1.558660507E0,1.703202486E0,6.631084702E0
4.110862452E0,-1.503731728E0,1.119324684E0,5.119277954E0,5.451706488E0
4.115604848E0,8.036445975E-1,4.431724548E-1,6.090374947E0,6.159132524E0
4.120347243E0,8.236554265E-1,-4.003763199E-1,5.608386517E0,5.682667400E0
4.125089691E0,1.538578749E0,-7.201480865E-1,4.874311447E0,5.161855279E0
4.129832087E0,3.448463917E0,-1.042118073E0,4.286287308E0,5.599122462E0
4.134574483E0,4.187287331E0,-1.989072800E0,5.483367920E0,7.180327955E0
4.139316879E0,5.324376106E0,-2.398585796E0,9.316260338E0,1.099522175E1
4.144059275E0,5.340390682E0,-2.652687073E0,1.258968353E1,1.393042185E1
4.148801723E0,3.465674639E0,-3.461386204E0,1.434398651E1,1.515724395E1
4.153544118E0,6.806577444E-1,-4.221933365E0,1.546472740E1,1.604511795E1
4.158286514E0,-2.491797924E0,-4.876686573E0,1.348318672E1,1.455291905E1
4.163028910E0,-4.739448547E0,-5.141803741E0,9.243133545E0,1.159034236E1
4.167771306E0,-3.430557728E0,-3.541148186E0,1.657071829E0,5.201379033E0
4.172513702E0,-7.799107432E-1,-9.813566208E-1,-6.582124710E0,6.700424411E0
4.177256150E0,-4.016928673E-1,1.424293518E-1,-8.245599747E0,8.256606958E0
4.181998546E0,-1.412728429E0,4.832553864E-1,-6.978303909E0,7.136249914E0
4.186740941E0,-2.680377007E0,9.117174149E-1,-4.447819710E0,5.272451964E0
4.191483337E0,-3.678673267E0,1.604148865E0,-1.970155478E0,4.470731841E0
4.196225733E0,-3.378457069E0,3.117076874E0,3.835721016E-1,4.612728906E0
4.200968181E0,-1.511442304E0,4.793589592E0,7.584699392E-1,5.083132466E0
4.205710577E0,-1.211851954E0,4.085381508E0,1.000200987E0,4.377137105E0
4.210452973E0,-1.348243475E0,2.557336807E0,1.386055708E0,3.206069625E0
4.215195368E0,-9.810883999E-1,1.076446533E0,1.845896721E0,2.351298852E0
4.219937764E0,-5.515938997E-1,-3.643102646E-1,2.337898016E0,2.429556530E0
4.224680212E0,-5.716550350E-2,-1.786352634E0,2.475421906E0,3.053201146E0
4.229422608E0,5.769805312E-1,-3.031813622E0,2.141809940E0,3.756614192E0
4.234165004E0,1.028162956E0,-4.165640831E0,1.065859079E0,4.421056228E0
4.238907400E0,1.445215464E0,-5.233703136E0,-1.578346610E0,5.654332346E0
4.243649796E0,1.785368323E0,-6.118982315E0,-4.851306438E0,8.010284563E0
4.248392191E0,1.758726478E0,-6.926664352E0,-6.853943825E0,9.901936368E0
4.253134639E0,1.603753090E0,-7.455451488E0,-7.506403446E0,1.070055483E1
4.257877035E0,1.331616521E0,-7.633290291E0,-6.833103657E0,1.033110008E1
4.262619431E0,1.162069678E0,-7.479252815E0,-5.497124672E0,9.354571517E0
4.267361827E0,9.323678017E-1,-6.931553841E0,-3.463069439E0,7.804396088E0
4.272104223E0,6.527768970E-1,-5.950594425E0,-7.350291014E-1,6.031248583E0
4.276846671E0,6.024075150E-1,-4.626378536E0,1.962013125E0,5.061202296E0
4.281589066E0,7.282319069E-1,-3.269043922E0,4.347046852E0,5.487602957E0
4.286331462E0,1.103858352E0,-1.951560974E0,6.019196510E0,6.423225056E0
4.291073858E0,1.469601750E0,-9.091043472E-1,6.464810848E0,6.691784465E0
4.295816254E0,1.749108315E0,-1.203556061E-1,5.984133244E0,6.235680881E0
4.300558650E0,1.841411948E0,3.956480026E-1,5.055293560E0,5.394750067E0
4.305301046E0,1.712130547E0,7.971601486E-1,3.666934967E0,4.124714216E0
4.310043493E0,1.580340505E0,1.056023598E0,1.785277963E0,2.607657829E0
4.314785889E0,1.547564030E0,1.079776764E0,-4.211129546E-1,1.933444700E0
4.319528285E0,1.584004641E0,1.022375107E0,-2.505940914E0,3.135930711E0
4.324270681E0,1.770445228E0,9.227514267E-1,-4.194375992E0,4.645291860E0
4.329013077E0,2.089906693E0,7.479829788E-1,-5.449855804E0,5.884565983E0
4.333755473E0,2.489962101E0,5.917854309E-1,-6.195792675E0,6.703578756E0
4.338497921E0,2.889580727E0,3.993177414E-1,-6.353973389E0,6.991574162E0
4.343240316E0,3.186200380E0,2.830524445E-1,-6.120150089E0,6.905666417E0
4.347982712E0,3.353673220E0,1.902427673E-1,-5.765976906E0,6.673065716E0
4.352725108E0,3.281934023E0,1.039867401E-1,-5.213386059E0,6.161274087E0
4.357467504E0,3.035453558E0,2.879333496E-2,-4.470130444E0,5.403413138E0
4.362209900E0,2.781256676E0,2.886104584E-2,-3.520035744E0,4.486298395E0
4.366952348E0,2.525987864E0,6.536865234E-2,-2.506891012E0,3.559408700E0
4.371694743E0,2.350669622E0,2.836122513E-1,-1.433133602E0,2.767662462E0
4.376437139E0,2.360479355E0,5.848445892E-1,-4.162385464E-1,2.467217158E0
4.381179535E0,2.443227768E0,9.135580063E-1,3.519773483E-1,2.632078686E0
4.385921931E0,2.606543303E0,1.281366348E0,6.937155724E-1,2.986169620E0
4.390664327E0,2.836798906E0,1.762225151E0,5.933392048E-1,3.391889876E0
4.395406723E0,2.969575882E0,2.262767792E0,4.163908958E-2,3.733662118E0
4.400149118E0,2.797102690E0,2.730437279E0,-8.706412315E-1,4.004633235E0
4.404891566E0,2.467864752E0,3.103210449E0,-1.799680471E0,4.354207313E0
4.409633962E0,2.098714352E0,3.288020134E0,-2.657956600E0,4.720213091E0
4.414376358E0,1.653138161E0,3.299483299E0,-3.312561989E0,4.959084870E0
4.419118754E0,1.324364185E0,3.223827362E0,-3.680403709E0,5.068764625E0
4.423861150E0,8.606694937E-1,3.046661377E0,-3.733085871E0,4.894775546E0
4.428603546E0,5.008752346E-1,2.820618629E0,-3.856082916E0,4.803763203E0
4.433345941E0,2.733460665E-1,2.557845116E0,-4.332245827E0,5.038416776E0
4.438088389E0,7.560253143E-4,2.318284035E0,-4.812759399E0,5.342012212E0
4.442830785E0,-1.637201309E-1,2.068532944E0,-5.137806892E0,5.541001036E0
4.447573181E0,-1.311628819E-1,1.846961975E0,-5.154480934E0,5.476965030E0
4.452315577E0,5.092525482E-2,1.706073761E0,-4.764382362E0,5.060891261E0
4.457057973E0,2.463204861E-1,1.535585403E0,-4.206149101E0,4.484460567E0
4.461800368E0,4.765729904E-1,1.505069733E0,-3.342701912E0,3.696757064E0
4.466542764E0,6.671620607E-1,1.616546631E0,-2.618639469E0,3.148904713E0
4.471285160E0,9.347699881E-1,1.771637917E0,-2.141115427E0,2.932042140E0
4.476027608E0,1.298225999E0,2.044500351E0,-2.068051577E0,3.184683619E0
4.480770004E0,1.934902430E0,2.394592285E0,-2.167367220E0,3.765023279E0
4.485512400E0,2.735445261E0,2.853116989E0,-2.393208265E0,4.620647480E0
4.490254796E0,2.568936110E0,2.970388412E0,-2.465024233E0,4.636699745E0
4.494997191E0,3.040941477E0,3.002734184E0,-2.865999937E0,5.145647995E0
4.499739587E0,3.590492010E0,4.219721794E0,-3.059381008E0,6.329099229E0
4.504481983E0,4.323631763E0,5.526592255E0,-2.833454609E0,7.567395760E0
4.509224379E0,5.061700821E0,6.281649590E0,-1.829503417E0,8.272062592E0
4.513966775E0,5.846379757E0,6.618926048E0,-6.961702108E-1,8.858611136E0
4.518709223E0,6.487597466E0,6.292498589E0,1.998512745E-1,9.040154860E0
4.523451618E0,7.411372185E0,5.741185188E0,1.137161255E0,9.443663524E0
4.528194014E0,7.560500145E0,4.600252151E0,1.459379554E0,8.969574738E0
4.532936410E0,7.521285057E0,4.047818184E0,1.238694668E0,8.630696695E0
4.537678806E0,7.097328663E0,3.782870293E0,4.312721491E-1,8.054078313E0
4.542421202E0,6.561845303E0,3.705552101E0,-4.421434999E-1,7.548802622E0
4.547163598E0,6.138642311E0,3.737633705E0,-1.423251390E0,7.326559879E0
4.551905993E0,5.803246498E0,3.776939392E0,-2.489276886E0,7.357950836E0
4.556648389E0,5.104674339E0,3.924217224E0,-3.442601681E0,7.301279837E0
4.561390837E0,3.988723040E0,4.205556870E0,-3.764130592E0,6.911244402E0
4.566133233E0,2.900995731E0,4.654015541E0,-3.132355690E0,6.315638452E0
4.570875629E0,2.107854128E0,5.295482635E0,-1.987832904E0,6.036279071E0
4.575618025E0,1.768419504E0,6.045933723E0,-5.066995621E-1,6.319601774E0
4.580360421E0,1.961077452E0,6.699648857E0,1.099495173E0,7.066824550E0
4.585102816E0,2.316789150E0,7.362011909E0,2.557186365E0,8.130555542E0
4.589845212E0,2.724638939E0,8.171708107E0,3.681446075E0,9.367684663E0
4.594587608E0,3.054427385E0,9.018575668E0,4.645764351E0,1.059468547E1
4.599330004E0,3.115679264E0,9.811639786E0,5.197096825E0,1.153193600E1
4.604072400E0,3.109543800E0,1.032604599E1,5.313813210E0,1.202219195E1
4.608814796E0,2.599544525E0,1.058337975E1,5.954926491E0,1.241880462E1
4.613557243E0,1.868686557E0,1.072468567E1,6.344620705E0,1.260020175E1
4.618299639E0,1.080196738E0,1.055848885E1,6.289060593E0,1.233696862E1
4.623042035E0,3.950584531E-1,9.998833656E0,6.073254585E0,1.170543322E1
4.627784431E0,-2.911367416E-1,9.019748688E0,5.882070065E0,1.077215741E1
4.632526827E0,-1.176476479E0,7.896611214E0,6.070587635E0,1.002958622E1
4.637269223E0,-2.165004969E0,6.636670113E0,6.099205017E0,9.270002079E0
4.642011618E0,-3.129482031E0,5.311792374E0,6.002703667E0,8.604722384E0
4.646754014E0,-3.846363544E0,4.091905594E0,5.676986217E0,7.985385177E0
4.651496410E0,-4.232492924E0,2.862226486E0,5.041219234E0,7.177759273E0
4.656238806E0,-4.445839882E0,1.737601280E0,4.248129845E0,6.389941912E0
4.660981202E0,-4.524172783E0,8.135013580E-1,3.265351295E0,5.638478776E0
4.665723598E0,-4.363368988E0,1.095771790E-3,2.301585674E0,4.933182213E0
4.670465993E0,-4.124508381E0,-6.233844757E-1,1.429177523E0,4.409390659E0
4.675208389E0,-4.289630890E0,-1.184752464E0,7.685103416E-1,4.516102271E0
4.679950785E0,-4.524877548E0,-1.563931465E0,9.510767460E-2,4.788469894E0
4.684693181E0,-4.513336658E0,-1.924083710E0,-3.196783066E-1,4.916757075E0
4.689435629E0,-4.714068413E0,-2.306302071E0,-4.342598915E-1,5.265933146E0
4.694178025E0,-4.810576439E0,-2.512559891E0,-9.054288864E-1,5.502218130E0
4.698920421E0,-4.146002293E0,-2.916057110E0,-4.337863922E-1,5.087326873E0
4.703662816E0,-2.749890327E0,-3.320254803E0,2.801051140E-1,4.320236989E0
4.708405212E0,-1.851234674E0,-3.557591438E0,9.574627876E-1,4.123137355E0
4.713147608E0,-1.823548317E0,-3.611254215E0,1.958939791E0,4.494878260E0
4.717890004E0,-2.002952337E0,-3.667514324E0,2.997391224E0,5.142648494E0
4.722632400E0,-2.444114447E0,-3.907340050E0,4.411072254E0,6.379542313E0
4.727374796E0,-2.948378801E0,-4.296406269E0,5.606929779E0,7.654391284E0
4.732117191E0,-2.772457123E0,-4.795931816E0,5.869075298E0,8.070534390E0
4.736859587E0,-2.476441383E0,-5.144937038E0,6.095808983E0,8.352366504E0
4.741601983E0,-2.136475801E0,-5.482229233E0,5.995296478E0,8.400175360E0
4.746344379E0,-2.101275206E0,-5.858172417E0,5.822910309E0,8.522900094E0
4.751086775E0,-1.967777729E0,-6.021791935E0,5.503706932E0,8.391955511E0
4.755829171E0,-1.859681368E0,-6.162412643E0,5.297646523E0,8.336594212E0
4.760571566E0,-1.584565759E0,-6.309066772E0,4.945044518E0,8.171207834E0
4.765313962E0,-1.626902699E0,-6.440730095E0,4.327136040E0,7.928046598E0
4.770056358E0,-1.640529752E0,-6.510085106E0,3.715277433E0,7.673058866E0
4.774798754E0,-1.588421702E0,-6.507885933E0,3.381414890E0,7.503974246E0
4.779541150E0,-1.662165403E0,-6.493990898E0,3.712811947E0,7.662877016E0
4.784283598E0,-1.594425797E0,-6.434734821E0,4.350785732E0,7.929523462E0
4.789025941E0,-1.390606284E0,-6.329939842E0,5.032753944E0,8.205518662E0
4.793768337E0,-1.206895351E0,-6.222535133E0,5.505752087E0,8.395823123E0
4.798510733E0,-1.015165329E0,-6.045584679E0,5.614592075E0,8.312839402E0
4.803253181E0,-8.587498665E-1,-5.899874210E0,5.409158230E0,8.050152780E0
4.807995577E0,-8.287678361E-1,-5.725865364E0,5.085158348E0,7.702676530E0
4.812737973E0,-8.894596696E-1,-5.526193619E0,4.821537495E0,7.387636850E0
4.817480368E0,-9.887862206E-1,-5.356012344E0,4.699272633E0,7.193589486E0
4.822222764E0,-1.089159131E0,-5.155661583E0,4.572029114E0,6.976429186E0
4.826965160E0,-1.092931747E0,-4.985168457E0,4.358067989E0,6.711122183E0
4.831707556E0,-1.055223703E0,-4.815913677E0,4.155348301E0,6.447746980E0
4.836449952E0,-1.150497079E0,-4.695819855E0,3.896718025E0,6.209571564E0
4.841192348E0,-1.402551174E0,-4.682302952E0,3.629934549E0,6.088311388E0
4.845934743E0,-1.773107648E0,-4.691603184E0,3.366892576E0,6.040779485E0
4.850677139E0,-2.099398613E0,-4.747864246E0,2.865491867E0,5.929648647E0
4.855419535E0,-2.424278498E0,-4.868026733E0,2.261701584E0,5.889830606E0
4.860161931E0,-2.635016918E0,-5.037940502E0,1.660181642E0,5.922867696E0
4.864904327E0,-2.812894821E0,-5.195633888E0,1.007674456E0,5.993529560E0
4.869646723E0,-2.907769680E0,-5.274372101E0,4.137320518E-1,6.036994267E0
4.874389118E0,-2.965342045E0,-5.231327057E0,-1.148445606E-1,6.014418134E0
4.879131514E0,-2.926414013E0,-5.066357613E0,-4.100356102E-1,5.865151970E0
4.883873910E0,-2.806329250E0,-4.759948254E0,-6.189632416E-1,5.560189451E0
4.888616306E0,-2.596735001E0,-4.335512638E0,-8.546805382E-1,5.125444500E0
4.893358702E0,-2.397379637E0,-3.837932110E0,-1.124646664E0,4.662829840E0
4.898101098E0,-2.196177483E0,-3.240118980E0,-1.483429193E0,4.185944184E0
4.902843493E0,-2.111425400E0,-2.510204315E0,-1.824866056E0,3.753582162E0
4.907585889E0,-2.058457375E0,-1.664512634E0,-2.411846399E0,3.581180270E0
4.912328285E0,-1.843721151E0,-7.392110825E-1,-3.846382856E0,4.329018571E0
4.917070681E0,-1.441624641E0,1.355237961E-1,-6.259056091E0,6.424362339E0
4.921813077E0,-8.856372237E-1,1.003809929E0,-9.552650452E0,9.645989753E0
4.926555473E0,-1.352508664E-1,1.845442772E0,-1.256568527E1,1.270119672E1
4.931297868E0,4.770802855E-1,2.638829231E0,-1.443671322E1,1.468365465E1
4.936040264E0,7.715768218E-1,3.318146706E0,-1.497387028E1,1.535650414E1
4.940782660E0,9.122717977E-1,3.942498207E0,-1.450756073E1,1.506136947E1
4.945525056E0,1.107609272E0,4.541435242E0,-1.389078617E1,1.465624006E1
4.950267452E0,1.249469519E0,5.233699799E0,-1.360885811E1,1.463399490E1
4.955009796E0,1.489595294E0,5.909862518E0,-1.294345093E1,1.430658209E1
4.959752243E0,1.757279992E0,6.389295578E0,-1.089618874E1,1.275296279E1
4.964494639E0,1.933258176E0,6.394705772E0,-7.141188622E0,9.778871306E0
4.969236983E0,2.076361895E0,6.011572838E0,-2.403956652E0,6.799212770E0
4.973979379E0,2.385679007E0,5.558171272E0,2.375618935E0,6.498330365E0
4.978721775E0,2.577233315E0,4.886300087E0,5.984191895E0,8.144238008E0
4.983464171E0,2.472615242E0,3.918969154E0,7.437476158E0,8.762887479E0
4.988206566E0,2.247662306E0,2.874818802E0,6.476598263E0,7.433901670E0
4.992948962E0,2.131363392E0,2.040614128E0,3.904467821E0,4.894045861E0
4.997691358E0,2.234492302E0,1.238065720E0,7.121798992E-1,2.651973375E0
5.002433754E0,2.299535513E0,1.401805878E-1,-2.905806065E0,3.708264157E0
5.007176150E0,2.684419870E0,-6.926383972E-1,-6.006901264E0,6.615793285E0
5.011918546E0,3.663952827E0,-3.510332108E-1,-8.076058388E0,8.875274290E0
5.016660941E0,4.824905396E0,1.433259964E0,-8.589474678E0,9.955552292E0
5.021403337E0,5.103023052E0,4.103365898E0,-8.730962753E0,1.091366879E1
5.026145733E0,4.982483387E0,7.097142220E0,-9.848228455E0,1.312182046E1
5.030888129E0,4.363330364E0,9.502981186E0,-1.112322330E1,1.526667613E1
5.035630525E0,3.351270676E0,1.073692036E1,-1.060711479E1,1.546038027E1
5.040372921E0,2.511508226E0,1.063584232E1,-4.374080658E0,1.177121052E1
5.045115316E0,2.286008596E0,9.774614334E0,4.001005173E0,1.080633902E1
5.049857712E0,2.196616888E0,8.689379692E0,1.010101032E1,1.350410511E1
5.054600108E0,1.752946138E0,7.641646385E0,1.404945755E1,1.608896632E1
5.059342504E0,6.350922585E-1,6.365339279E0,1.721292877E1,1.836316430E1
5.064084900E0,-1.061424255E0,4.510958672E0,1.963191986E1,2.017145624E1
5.068827296E0,-3.319512367E0,2.232374191E0,2.037818718E1,2.076711751E1
5.073569691E0,-5.848248959E0,6.878280640E-2,1.993648911E1,2.077667791E1
5.078312087E0,-7.871499062E0,-1.807355881E0,1.852937889E1,2.021298877E1
5.083054431E0,-9.547882080E0,-3.030572891E0,1.702794266E1,1.975594228E1
5.087796827E0,-1.062323952E1,-3.772260189E0,1.500863075E1,1.877077947E1
5.092539223E0,-1.084296131E1,-4.163516521E0,1.265178490E1,1.717475883E1
5.097281618E0,-1.013677120E1,-4.083384037E0,8.309648514E0,1.372874408E1
5.102024014E0,-1.051578236E1,-4.460828304E0,-4.089166641E0,1.213268114E1
5.106766410E0,-7.635504723E0,-3.028096676E0,-5.765792847E0,1.003566983E1
5.111508806E0,-3.606550217E0,-9.274845123E-1,-3.469823599E0,5.089902533E0
5.116251202E0,-5.250271559E-1,1.270735741E0,3.362271786E-1,1.415440409E0
5.120993598E0,9.040521979E-1,2.866987228E0,1.854071379E0,3.531926786E0
5.125735993E0,3.721467555E-1,3.757256508E0,1.118711710E0,3.937891005E0
5.130478389E0,-9.483168125E-1,4.430854797E0,-3.095328808E-1,4.541760630E0
5.135220785E0,-3.054989576E0,5.063846588E0,-9.076795578E-1,5.983258791E0
5.139963181E0,-5.118622780E0,5.588615417E0,-4.643700123E-1,7.592664944E0
5.144705577E0,-5.328321457E0,5.389806747E0,2.612447739E-2,7.579030862E0
5.149447973E0,-4.494325638E0,5.220254898E0,6.728265285E-1,6.921179067E0
5.154190368E0,-5.007126331E0,4.703366280E0,2.407825947E0,7.279463871E0
5.158932764E0,-5.918945789E0,3.945940018E0,4.477021217E0,8.405241273E0
5.163675160E0,-6.882754803E0,3.068718910E0,6.467139244E0,9.930419902E0
5.168417504E0,-7.449650288E0,2.447734833E0,7.764291286E0,1.103507655E1
5.173159952E0,-7.197588444E0,2.144761086E0,8.334990501E0,1.121950739E1
5.177902296E0,-5.635687351E0,1.824237823E0,8.041610718E0,9.987808493E0
5.182644691E0,-3.919839859E0,1.605190277E0,7.044473648E0,8.219877695E0
5.187387087E0,-2.641244411E0,1.381658554E0,5.981121540E0,6.682736511E0
5.192129483E0,-1.681019783E0,1.088418007E0,4.514359474E0,4.938615467E0
5.196871879E0,-8.945277929E-1,6.460704803E-1,3.043715000E0,3.237558963E0
5.201614275E0,-2.788442373E-1,1.238250732E-1,1.815983772E0,1.841435261E0
5.206356671E0,2.452866137E-1,-4.353151321E-1,9.347842336E-1,1.059946390E0
5.211099066E0,8.096328378E-1,-1.079145432E0,1.070107222E-1,1.353333473E0
5.215841462E0,1.414330840E0,-1.750080109E0,-5.627876520E-1,2.319448653E0
5.220583858E0,1.987540364E0,-2.493352413E0,-1.108491898E0,3.375778020E0
5.225326254E0,2.438091278E0,-3.251282692E0,-1.654470444E0,4.387755767E0
5.230068650E0,2.820735931E0,-3.980579376E0,-1.984990597E0,5.267043861E0
5.234811046E0,3.039384842E0,-4.599735737E0,-2.132758141E0,5.911352329E0
5.239553389E0,3.318699598E0,-5.091944218E0,-2.328850269E0,6.508856007E0
5.244295837E0,3.589154720E0,-5.538454533E0,-2.184006453E0,6.951718809E0
5.249038181E0,3.742958546E0,-5.893769741E0,-1.796667576E0,7.209318610E0
5.253780577E0,3.669878006E0,-6.148457050E0,-1.121180058E0,7.247659857E0
5.258522973E0,3.458213806E0,-6.312388420E0,-2.193262577E-1,7.200943987E0
5.263265368E0,3.246686459E0,-6.230560303E0,8.279391527E-1,7.074343636E0
5.268007764E0,3.035450220E0,-6.011271477E0,1.630375266E0,6.928742044E0
5.272750160E0,2.649972677E0,-5.592961788E0,2.081437826E0,6.529621748E0
5.277492556E0,1.972933531E0,-4.842422009E0,2.190883875E0,5.669346504E0
5.282234952E0,1.569022536E0,-3.875139713E0,1.876370430E0,4.582499919E0
5.286977348E0,1.524502993E0,-2.889984131E0,1.203427315E0,3.482004445E0
5.291719743E0,1.519017458E0,-2.018492699E0,4.325787425E-1,2.562977015E0
5.296462139E0,1.828002930E0,-1.203019142E0,-5.853497982E-1,2.265277942E0
5.301204535E0,2.042533398E0,-5.867996216E-1,-1.362894177E0,2.524630075E0
5.305946931E0,2.175022125E0,-2.292003632E-1,-2.026711941E0,2.981747029E0
5.310689327E0,2.306837320E0,7.588768005E-2,-2.738892555E0,3.581730000E0
5.315431671E0,2.215048313E0,2.807693481E-1,-3.093775034E0,3.815326253E0
5.320174066E0,2.186742067E0,3.975963593E-1,-3.206645966E0,3.901602502E0
5.324916462E0,2.341684341E0,4.409265518E-1,-3.132452250E0,3.935753914E0
5.329658858E0,2.632435799E0,4.014091492E-1,-3.021586657E0,4.027509586E0
5.334401254E0,3.006886482E0,2.888059616E-1,-2.885261059E0,4.177260655E0
5.339143650E0,3.429886341E0,9.613132477E-2,-2.698825836E0,4.365434966E0
5.343886046E0,3.770549059E0,-1.023473740E-1,-2.528413773E0,4.540968112E0
5.348628441E0,3.801941395E0,-3.784017563E-1,-2.394675255E0,4.509148017E0
5.353370837E0,3.600713015E0,-6.268644333E-1,-2.241629124E0,4.287539429E0
5.358113233E0,3.363174915E0,-8.025083542E-1,-2.063388109E0,4.026479313E0
5.362855629E0,3.117993116E0,-9.486093521E-1,-1.990799189E0,3.819034195E0
5.367598025E0,2.905903816E0,-1.022298813E0,-1.953727245E0,3.647796869E0
5.372340421E0,2.753118992E0,-1.009461403E0,-1.970820189E0,3.533101856E0
5.377082816E0,2.635603189E0,-9.509687424E-1,-2.044138908E0,3.468320861E0
5.381825212E0,2.457167387E0,-8.517932892E-1,-2.185602427E0,3.397069523E0
5.386567608E0,2.219632864E0,-8.435745239E-1,-2.431405306E0,3.398546717E0
5.391309952E0,1.900581002E0,-8.976078033E-1,-2.698240757E0,3.420294007E0
5.396052348E0,1.789059520E0,-7.412176132E-1,-2.977120876E0,3.551532941E0
5.400794743E0,1.914035320E0,-4.582071304E-1,-3.330712080E0,3.868737254E0
5.405537139E0,1.975004554E0,-2.015447617E-1,-3.666020632E0,4.169049118E0
5.410279535E0,1.805628419E0,7.669258118E-2,-3.860796928E0,4.262854520E0
5.415021931E0,1.598026395E0,4.815855026E-1,-3.926373005E0,4.266382300E0
5.419764327E0,1.100931644E0,8.357334137E-1,-3.909726858E0,4.146862058E0
5.424506723E0,4.667143822E-1,1.191388130E0,-3.889013290E0,4.094099701E0
5.429249118E0,-1.145279408E-1,1.576898575E0,-3.940539837E0,4.245889774E0
5.433991514E0,-5.462291241E-1,1.879621506E0,-4.069385529E0,4.515666268E0
5.438733910E0,-6.790462732E-1,2.152153015E0,-4.118283272E0,4.696075335E0
5.443476306E0,-6.717504263E-1,2.387346268E0,-4.025790691E0,4.728388893E0
5.448218702E0,-5.223488808E-1,2.592452049E0,-3.826074600E0,4.651075448E0
5.452961098E0,-1.973028183E-1,2.758065224E0,-3.629729748E0,4.562980410E0
5.457703493E0,2.395230532E-1,2.815027237E0,-3.410408735E0,4.428615741E0
5.462445889E0,6.818522215E-1,2.744467735E0,-3.174807787E0,4.251638518E0
5.467188233E0,9.853111506E-1,2.589713097E0,-2.965438843E0,4.058482415E0
5.471930629E0,1.244811058E0,2.406021118E0,-2.827236414E0,3.915578876E0
5.476673025E0,1.425159454E0,2.214870453E0,-2.565722466E0,3.676909349E0
5.481415421E0,1.500202894E0,2.080668449E0,-2.333473206E0,3.467691901E0
5.486157816E0,1.551247001E0,2.144108772E0,-1.899858117E0,3.257764655E0
5.490900212E0,1.556036711E0,2.325669289E0,-1.529736280E0,3.189056439E0
5.495642608E0,1.487251759E0,2.646334648E0,-1.301315188E0,3.302790651E0
5.500385004E0,1.494312048E0,3.083985329E0,-1.094240785E0,3.597401409E0
5.505127400E0,1.514041066E0,3.487483025E0,-1.041677594E0,3.942074379E0
5.509869796E0,1.729950666E0,3.835048676E0,-1.030182481E0,4.331466680E0
5.514612191E0,2.326011896E0,4.021396637E0,-1.101726174E0,4.774490844E0
5.519354587E0,2.862057686E0,3.781300545E0,-1.159664631E0,4.882051829E0
5.524096983E0,3.287647247E0,3.593277931E0,-1.212077022E0,5.018904404E0
5.528839379E0,3.728568077E0,3.511905670E0,-1.061204791E0,5.230856235E0
5.533581775E0,4.349209309E0,3.513028145E0,-7.821240425E-1,5.645237495E0
5.538324171E0,5.299607277E0,3.532197952E0,-6.297850609E-1,6.399913194E0
5.543066566E0,6.241779804E0,3.347676277E0,-6.570798159E-1,7.113262646E0
5.547808962E0,6.443362236E0,2.855417252E0,-7.340623736E-1,7.085843080E0
5.552551358E0,6.609762192E0,2.693075180E0,-1.510545492E0,7.295434041E0
5.557293754E0,6.276533604E0,2.612801552E0,-2.797411442E0,7.351674422E0
5.562036150E0,5.414912224E0,2.737334251E0,-4.161938667E0,7.357717490E0
5.566778493E0,4.347976685E0,3.265336990E0,-5.161173820E0,7.497002209E0
5.571520889E0,3.195220947E0,4.131848335E0,-5.674533844E0,7.712453690E0
5.576263285E0,1.996970534E0,5.075657845E0,-5.915675163E0,8.046453039E0
5.581005681E0,9.948647618E-1,5.988792419E0,-5.505604267E0,8.195551774E0
5.585748077E0,5.820360184E-1,6.612915039E0,-4.602490425E0,8.077891393E0
5.590490473E0,8.320013881E-1,6.874357224E0,-3.121922493E0,7.595749706E0
5.595232868E0,1.378628254E0,6.809596062E0,-1.007304549E0,7.020390078E0
5.599975264E0,1.850976229E0,6.622400284E0,1.185930014E0,6.977730900E0
5.604717660E0,2.344620705E0,6.533025742E0,2.966609240E0,7.548406585E0
5.609460056E0,2.839900494E0,6.565344810E0,4.046410084E0,8.218407501E0
5.614202452E0,3.227985382E0,6.745478630E0,4.965082645E0,8.976269674E0
5.618944848E0,3.404325724E0,7.037282944E0,5.814980984E0,9.743037961E0
5.623687243E0,3.457775354E0,7.469234467E0,6.677072525E0,1.059853629E1
5.628429639E0,3.297363997E0,7.990886688E0,7.325723648E0,1.133106819E1
5.633172035E0,2.927412271E0,8.458600998E0,7.893730164E0,1.193434746E1
5.637914431E0,2.732537270E0,8.865227699E0,8.338112831E0,1.247329739E1
5.642656827E0,2.735972404E0,9.387765884E0,8.355026245E0,1.286165451E1
5.647399223E0,2.369387150E0,9.849042892E0,8.337118149E0,1.311964864E1
5.652141618E0,1.616795063E0,1.007205677E1,8.463645935E0,1.325494837E1
5.656884014E0,8.259485364E-1,1.008799744E1,8.046987534E0,1.293073438E1
5.661626410E0,1.081531048E-1,9.712723732E0,6.846197128E0,1.188356489E1
5.666368806E0,-6.115992069E-1,8.932065010E0,5.510223389E0,1.051277322E1
5.671111202E0,-1.153894901E0,7.906507492E0,4.298329353E0,9.073035291E0
5.675853598E0,-1.645555735E0,6.614729881E0,3.458793163E0,7.643674197E0
5.680595993E0,-2.340408325E0,5.090438843E0,2.890878677E0,6.304542669E0
5.685338389E0,-3.160068989E0,3.556137085E0,2.273710489E0,5.272751309E0
5.690080785E0,-4.174618721E0,2.102504730E0,1.420475602E0,4.885255218E0
5.694823181E0,-5.365530014E0,8.201351166E-1,4.626772404E-1,5.447531934E0
5.699565577E0,-6.491704941E0,-4.108676910E-1,-3.774398565E-1,6.515635513E0
5.704307973E0,-7.407188416E0,-1.432854652E0,-1.208096266E0,7.640615765E0
5.709050368E0,-6.130913258E0,-2.423184395E0,-2.633649826E0,7.099016227E0
5.713792764E0,-5.454450130E0,-2.495137215E0,-4.043539047E0,7.233736515E0
5.718535160E0,-5.771516800E0,-2.649440765E0,-3.799427509E0,7.400377824E0
5.723277556E0,-6.080492973E0,-3.026720047E0,-2.579593658E0,7.265516670E0
5.728019952E0,-6.052386761E0,-3.449213505E0,-1.034761906E0,7.042669345E0
5.732762348E0,-4.950392723E0,-3.899617195E0,2.561728954E-1,6.307061672E0
5.737504743E0,-3.895519733E0,-4.097730160E0,1.297741652E0,5.800913708E0
5.742247139E0,-2.921920061E0,-4.220607281E0,2.017073154E0,5.515408124E0
5.746989535E0,-2.119048834E0,-4.363911629E0,2.462852240E0,5.440563741E0
5.751731931E0,-1.516962767E0,-4.489356995E0,2.762338638E0,5.485072198E0
5.756474327E0,-1.124578953E0,-4.733365059E0,3.061301231E0,5.748129072E0
5.761216723E0,-9.297400117E-1,-4.990725994E0,3.175148964E0,5.987765308E0
5.765959118E0,-9.970020056E-1,-5.309349060E0,3.359665394E0,6.361646957E0
5.770701514E0,-1.156623483E0,-5.624558926E0,3.710663795E0,6.836846261E0
5.775443910E0,-1.208042502E0,-5.895766735E0,3.907328606E0,7.175419773E0
5.780186306E0,-1.350527525E0,-6.180575848E0,3.970690250E0,7.469258562E0
5.784928702E0,-1.417340159E0,-6.414618969E0,4.108084679E0,7.748067460E0
5.789671098E0,-1.557840705E0,-6.763186455E0,4.239554405E0,8.132735102E0
5.794413493E0,-1.717524529E0,-7.140271664E0,4.192159176E0,8.456214785E0
5.799155889E0,-1.994768023E0,-7.510114670E0,4.192818642E0,8.829532829E0
5.803898285E0,-2.224474430E0,-7.781920433E0,4.136148453E0,9.089240680E0
5.808640681E0,-2.341859818E0,-7.986932755E0,3.948062897E0,9.212090038E0
5.813383077E0,-2.423481464E0,-8.053479195E0,3.997126102E0,9.311756366E0
5.818125473E0,-2.438732147E0,-8.024724007E0,4.204367638E0,9.381914362E0
5.822867868E0,-2.306659937E0,-7.886355400E0,4.424071789E0,9.332078694E0
5.827610264E0,-2.082762957E0,-7.722130775E0,4.651725769E0,9.252446048E0
5.832352660E0,-1.913081050E0,-7.510496140E0,4.866063595E0,9.151284406E0
5.837095056E0,-1.630150914E0,-7.337509155E0,5.050658703E0,9.055693565E0
5.841837452E0,-1.454284072E0,-7.210202217E0,5.260868073E0,9.043157140E0
5.846579848E0,-1.421608925E0,-7.085406780E0,5.408438206E0,9.026359455E0
5.851322243E0,-1.319027066E0,-6.943956375E0,5.302269459E0,8.835860114E0
5.856064639E0,-1.241973400E0,-6.812174797E0,5.102859497E0,8.601592785E0
5.860807035E0,-1.238203406E0,-6.663834572E0,4.833941460E0,8.325072307E0
5.865549431E0,-1.372709394E0,-6.508725643E0,4.511688232E0,8.037609799E0
5.870291879E0,-1.360555291E0,-6.385385513E0,4.025306702E0,7.669899145E0
5.875034275E0,-1.297271132E0,-6.322756767E0,3.524745941E0,7.354182448E0
5.879776671E0,-1.381378889E0,-6.227843761E0,2.867923975E0,6.994228584E0
5.884519066E0,-1.481018901E0,-6.077038288E0,2.195322037E0,6.628970522E0
5.889261462E0,-1.495509148E0,-5.865810871E0,1.563789248E0,6.252177349E0
5.894003858E0,-1.527619362E0,-5.536965847E0,8.557386398E-1,5.807228283E0
5.898746254E0,-1.438647270E0,-5.169675827E0,1.091318130E-1,5.367230559E0
5.903488650E0,-1.588340163E0,-4.692144394E0,-5.680043697E-1,4.986148058E0
5.908231046E0,-1.919163227E0,-4.080218792E0,-9.256629944E-1,4.603066897E0
5.912973441E0,-2.232581139E0,-3.293062687E0,-1.307147503E0,4.187757753E0
5.917715837E0,-2.454305172E0,-2.325697899E0,-1.770548820E0,3.816716877E0
5.922458233E0,-2.740203857E0,-1.314159870E0,-2.194241762E0,3.748390355E0
5.927200629E0,-2.906544447E0,-1.908750534E-1,-2.558918953E0,3.877176823E0
5.931943025E0,-3.027437449E0,9.584827423E-1,-3.204597473E0,4.511486633E0
5.936685421E0,-2.914288282E0,2.100433350E0,-4.700193882E0,5.915802480E0
5.941427816E0,-2.460042715E0,3.265529633E0,-7.173871994E0,8.257114104E0
5.946170212E0,-1.716410756E0,4.357309341E0,-1.019269753E1,1.121709826E1
5.950912608E0,-1.038657665E0,5.325407982E0,-1.285365677E1,1.395189135E1
5.955655056E0,-5.573642254E-1,6.024908066E0,-1.424170113E1,1.547372686E1
5.960397452E0,-1.456932127E-1,6.368892670E0,-1.505525589E1,1.634762216E1
5.965139848E0,2.345295399E-1,6.432394028E0,-1.591046238E1,1.716314395E1
5.969882243E0,9.038279653E-1,6.441865921E0,-1.673626518E1,1.795597710E1
5.974624639E0,1.691505313E0,6.374076843E0,-1.656709099E1,1.783139225E1
5.979367035E0,2.367773056E0,6.146638870E0,-1.452034569E1,1.594452751E1
5.984109431E0,3.086250305E0,5.673684120E0,-1.051923847E1,1.234382479E1
5.988851827E0,4.042228222E0,5.272162437E0,-5.340327740E0,8.523755401E0
5.993594223E0,5.038897514E0,4.919593811E0,-8.300471306E-2,7.042711211E0
5.998336618E0,5.713844299E0,4.402199745E0,4.161840916E0,8.327562613E0
6.003079014E0,6.079916954E0,3.606413841E0,6.480373383E0,9.589934835E0
6.007821462E0,5.761638641E0,2.590632439E0,6.860542297E0,9.326033288E0
6.012563806E0,5.260004520E0,1.510547638E0,5.195173264E0,7.545808569E0
6.017306254E0,5.044163227E0,3.154373169E-1,2.255336761E0,5.534403967E0
6.022048650E0,4.637134552E0,-1.124748230E0,-1.032678604E0,4.882059047E0
6.026791046E0,4.283341885E0,-2.552939415E0,-4.211380482E0,6.526886158E0
6.031533441E0,4.101336479E0,-3.659953594E0,-7.087405682E0,8.969255294E0
6.036275837E0,4.352098465E0,-4.122268200E0,-8.698931694E0,1.056433949E1
6.041018233E0,5.128670692E0,-3.322085857E0,-8.875061035E0,1.077525990E1
6.045760629E0,5.781756401E0,-1.022333145E0,-9.177679062E0,1.089512116E1
6.050503025E0,6.016737938E0,2.581498146E0,-9.074955940E0,1.119017844E1
6.055245421E0,5.515749454E0,6.019904137E0,-7.977272511E0,1.141488566E1
6.059987868E0,4.616982460E0,8.738564491E0,-5.989335060E0,1.155643418E1
6.064730264E0,3.561807156E0,9.776988029E0,-6.641006470E-1,1.042674421E1
6.069472660E0,3.107113123E0,9.831982613E0,6.725309372E0,1.231063850E1
6.074215056E0,3.127920866E0,9.867713928E0,1.182818317E1,1.571819278E1
6.078957452E0,2.506001711E0,9.738318443E0,1.537898445E1,1.837465791E1
6.083699848E0,1.289935350E0,9.211290359E0,1.905113792E1,2.120041649E1
6.088442243E0,-6.553159952E-1,8.018709183E0,2.131579208E1,2.278359340E1
6.093184639E0,-2.547223091E0,6.708613396E0,2.175007629E1,2.290326741E1
6.097927087E0,-6.419376373E0,4.589570045E0,2.101956177E1,2.245204942E1
6.102669483E0,-1.047066879E1,2.675554276E0,1.898770905E1,2.184780516E1
6.107411879E0,-1.388354778E1,1.357253075E0,1.513254547E1,2.058127711E1
6.112154275E0,-1.890989876E1,-3.652677536E-1,2.956260681E0,1.914307104E1
6.116896671E0,-2.240178680E1,-1.133889198E0,-8.215581894E0,2.388768600E1
6.121639066E0,-2.111570358E1,-5.886840820E-1,-1.035770416E1,2.352661306E1
6.126381462E0,-1.562166500E1,1.125320435E0,-7.129934311E0,1.720868173E1
6.131123858E0,-9.152595520E0,3.174465179E0,-1.462963104E0,9.797320806E0
6.135866306E0,-4.853345871E0,4.576234818E0,3.483515263E0,7.525408283E0
6.140608702E0,-2.760580540E0,5.190489769E0,6.606574535E0,8.843574846E0
6.145351098E0,-2.528529882E0,5.043797493E0,7.924145222E0,9.727560538E0
6.150093493E0,-3.356474876E0,4.355576515E0,7.447373390E0,9.257447855E0
6.154835889E0,-4.494637489E0,3.585968971E0,5.812550545E0,8.175982110E0
6.159578285E0,-5.777105808E0,2.713695526E0,3.439222574E0,7.250334257E0
6.164320681E0,-5.948007107E0,2.300860405E0,1.542167425E0,6.561328182E0
6.169063077E0,-5.315781116E0,2.120084763E0,8.091304302E-1,5.779877190E0
6.173805525E0,-4.716350555E0,1.851348877E0,1.088651657E0,5.182337084E0
6.178547921E0,-4.376049519E0,1.493249893E0,2.084613562E0,5.072003385E0
6.183290316E0,-4.102313042E0,1.230817795E0,3.243477583E0,5.372525623E0
6.188032712E0,-3.648432970E0,9.950952530E-1,4.401723862E0,5.803141447E0
6.192775108E0,-1.337592721E0,5.662574768E-1,4.562911510E0,4.788524122E0
6.197517556E0,-1.146492362E0,7.026033401E-1,4.675648689E0,4.865160517E0
6.202259952E0,-1.141092658E0,7.245130539E-1,4.724409103E0,4.913965099E0
6.207002348E0,-1.125679255E0,4.719924927E-1,4.239317894E0,4.411546997E0
6.211744743E0,-1.065401793E0,9.116458893E-2,3.503974915E0,3.663499988E0
6.216487139E0,-8.607888818E-1,-4.706277847E-1,2.645656824E0,2.821692407E0
6.221229535E0,-2.998440266E-1,-1.122511864E0,1.884756565E0,2.214101767E0
6.225971983E0,2.560830116E-2,-1.713912964E0,1.384650707E0,2.203499720E0
6.230714379E0,4.647766948E-1,-2.161372662E0,1.170153499E0,2.501361303E0
6.235456775E0,9.677789211E-1,-2.572893143E0,1.104918122E0,2.962637207E0
6.240199171E0,1.518846750E0,-2.953476906E0,1.162690639E0,3.518774049E0
6.244941566E0,1.927510738E0,-3.267476082E0,1.142551899E0,3.961959418E0
6.249683962E0,2.218594551E0,-3.574939251E0,9.077863097E-1,4.304233778E0
6.254426410E0,2.421526909E0,-3.945402145E0,3.281678557E-1,4.640871125E0
6.259168806E0,2.711933136E0,-4.113468647E0,-3.463702500E-1,4.939147497E0
6.263911202E0,3.179632425E0,-4.175022125E0,-1.227743983E0,5.389640748E0
6.268653598E0,3.641834497E0,-4.211390972E0,-1.960996032E0,5.902904189E0
6.273395993E0,3.845845222E0,-4.389873028E0,-2.394254684E0,6.308245887E0
6.278138389E0,3.708371162E0,-4.602599144E0,-2.422757626E0,6.387933161E0
6.282880837E0,3.269844532E0,-4.763439655E0,-2.029314995E0,6.123753748E0
6.287623233E0,2.519865751E0,-4.726710796E0,-1.294016123E0,5.510535009E0
6.292365629E0,1.931329608E0,-4.476111889E0,-5.069003105E-1,4.901281426E0
6.297108025E0,1.354577780E0,-4.222624779E0,2.286521196E-1,4.440464252E0
6.301850421E0,1.051754832E0,-3.856620789E0,7.759106159E-1,4.072069427E0
6.306592868E0,1.022382021E0,-3.414427280E0,1.258464336E0,3.779855968E0
6.311335264E0,1.211623192E0,-2.929809570E0,1.511692762E0,3.512410837E0
6.316077660E0,1.378318071E0,-2.515290260E0,1.379907846E0,3.182859008E0
6.320820056E0,1.609246731E0,-2.051243782E0,1.164098620E0,2.855241092E0
6.325562504E0,1.689406037E0,-1.642914772E0,7.077608109E-1,2.460525772E0
6.330304900E0,1.764865994E0,-1.306818962E0,-1.343501806E-1,2.200131303E0
6.335047296E0,1.809450507E0,-1.088041306E0,-1.070028901E0,2.367046022E0
6.339789691E0,1.928610325E0,-9.765720367E-1,-2.055934668E0,2.983303217E0
6.344532087E0,1.940846682E0,-9.408884048E-1,-2.847543478E0,3.572206698E0
6.349274483E0,1.932761908E0,-8.945856094E-1,-3.393386364E0,4.006360321E0
6.354016931E0,1.890421867E0,-7.299118042E-1,-3.722730637E0,4.238536242E0
6.358759327E0,1.871526480E0,-6.740674973E-1,-3.936090946E0,4.410191639E0
6.363501723E0,1.809207439E0,-7.531700134E-1,-4.136022091E0,4.576808426E0
6.368244118E0,1.811278105E0,-9.072751999E-1,-4.142492294E0,4.611303402E0
6.372986566E0,1.765400171E0,-1.035917282E0,-4.055264950E0,4.542569338E0
6.377728962E0,1.795984507E0,-1.146439552E0,-3.830269337E0,4.383018045E0
6.382471358E0,1.816660881E0,-1.121918678E0,-3.475997925E0,4.079401899E0
6.387213754E0,1.817438126E0,-9.150257111E-1,-2.955358267E0,3.588104775E0
6.391956150E0,1.807226300E0,-5.980634689E-1,-2.480314970E0,3.126613050E0
6.396698598E0,1.871250391E0,-1.595516205E-1,-2.059654951E0,2.787330849E0
6.401440993E0,1.967869401E0,3.236598969E-1,-1.868007660E0,2.732529657E0
6.406183389E0,2.235006094E0,7.941274643E-1,-2.078080893E0,3.153460142E0
6.410925837E0,2.674804449E0,1.235240936E0,-2.338683367E0,3.761627161E0
6.415668233E0,3.048174143E0,1.704518318E0,-2.705192566E0,4.417557597E0
6.420410629E0,3.159431934E0,1.723752022E0,-3.043750286E0,4.713570513E0
6.425153025E0,3.258248568E0,1.769334793E0,-3.354076862E0,4.999656082E0
6.429895421E0,3.713912725E0,1.984594345E0,-3.611333847E0,5.547386286E0
6.434637868E0,4.024419308E0,2.079670906E0,-3.670700550E0,5.830525222E0
6.439380264E0,3.950869083E0,2.061387062E0,-3.444732666E0,5.632483136E0
6.444122660E0,3.598288059E0,2.101570129E0,-3.229299784E0,5.271873581E0
6.448865056E0,3.087948084E0,2.214159012E0,-3.213090658E0,4.976130532E0
6.453607504E0,2.629323244E0,2.420462608E0,-3.449089527E0,4.966709024E0
6.458349900E0,2.111018896E0,2.679652214E0,-3.751440048E0,5.070526521E0
6.463092296E0,1.644507408E0,2.798011780E0,-4.130650520E0,5.253146510E0
6.467834691E0,1.377825856E0,2.794930458E0,-4.398320198E0,5.390293213E0
6.472577139E0,1.303940177E0,2.759167671E0,-4.614723206E0,5.532534364E0
6.477319535E0,1.394509792E0,2.602388382E0,-4.605383396E0,5.470524571E0
6.482061931E0,1.542204261E0,2.401303291E0,-4.513939857E0,5.340440480E0
6.486804327E0,1.661188364E0,2.222755432E0,-4.191523552E0,5.026833812E0
6.491546775E0,1.742088079E0,2.121366501E0,-3.618043423E0,4.541509101E0
6.496289171E0,1.773024559E0,2.249587059E0,-2.914087057E0,4.086093660E0
6.501031566E0,1.694185019E0,2.458416939E0,-2.405796766E0,3.834310212E0
6.505773962E0,1.673233271E0,2.745186806E0,-2.290462971E0,3.947401778E0
6.510516410E0,1.741612673E0,2.973656654E0,-2.710911274E0,4.384619543E0
6.515258806E0,1.827717185E0,3.153552055E0,-3.130488157E0,4.804726504E0
6.520001202E0,1.632287979E0,3.499743462E0,-3.215013027E0,5.024826077E0
6.524743650E0,1.427646875E0,3.734273911E0,-2.891252518E0,4.933793506E0
6.529486046E0,1.675352335E0,3.830976486E0,-2.469047308E0,4.855860469E0
6.534228441E0,2.178803444E0,3.931405067E0,-1.854530573E0,4.862346542E0
6.538970837E0,2.719816208E0,4.050477982E0,-1.172598600E0,5.017844115E0
6.543713285E0,3.056071997E0,4.055048943E0,-7.069760561E-1,5.126676615E0
6.548455681E0,3.119541645E0,3.960601807E0,-1.001135588E0,5.140056343E0
6.553198077E0,2.925746441E0,3.954721451E0,-1.680570602E0,5.198473963E0
6.557940473E0,2.317845821E0,4.281782150E0,-2.286981583E0,5.379252029E0
6.562682921E0,1.615653157E0,4.838895798E0,-2.466656208E0,5.666536907E0
6.567425316E0,1.281131029E0,5.351152420E0,-2.207122803E0,5.928534389E0
6.572167764E0,1.310752153E0,5.634966850E0,-1.591088295E0,6.000207044E0
6.576910160E0,1.594177842E0,5.684000969E0,-1.002695799E0,5.987876825E0
6.581652556E0,1.743296623E0,5.702097893E0,-2.489272952E-1,5.967827770E0
6.586394952E0,1.726181507E0,5.851979256E0,7.773476243E-1,6.150579902E0
6.591137400E0,1.800087452E0,6.257818222E0,1.705249190E0,6.731157295E0
6.595879796E0,1.918235302E0,6.675393105E0,2.278738499E0,7.309798145E0
6.600622191E0,2.024219275E0,7.159629822E0,2.542981625E0,7.862856885E0
6.605364639E0,2.157192230E0,7.712721825E0,2.715259314E0,8.456488006E0
6.610107035E0,2.231494665E0,8.401322365E0,2.977321625E0,9.188374719E0
6.614849431E0,2.199542761E0,9.064813614E0,3.358135700E0,9.913925035E0
6.619591827E0,2.228751659E0,9.645586967E0,3.644799471E0,1.054937179E1
6.624334275E0,2.295125484E0,1.018177795E1,3.909195900E0,1.114531363E1
6.629076671E0,2.470667839E0,1.077130985E1,4.113156319E0,1.179166529E1
6.633819118E0,2.573572636E0,1.130154133E1,4.369111061E0,1.238697881E1
6.638561514E0,2.181774616E0,1.159291267E1,4.562616825E0,1.264805270E1
6.643303910E0,1.336796761E0,1.157370090E1,4.941366673E0,1.265522354E1
6.648046306E0,4.340086579E-1,1.101694012E1,5.090625286E0,1.214396142E1
6.652788754E0,-3.153266311E-1,1.006191921E1,5.048112392E0,1.126166452E1
6.657531150E0,-9.772045016E-1,8.637400627E0,4.769709110E0,9.915126990E0
6.662273598E0,-1.612078428E0,6.952029228E0,3.799217701E0,8.084773490E0
6.667015993E0,-2.181306124E0,5.295561790E0,2.727895498E0,6.343696472E0
6.671758389E0,-2.367873192E0,3.672984123E0,2.027188301E0,4.817377734E0
6.676500785E0,-2.596283913E0,2.325940132E0,1.239785790E0,3.699696806E0
6.681243233E0,-3.042467594E0,1.103469849E0,3.626647592E-1,3.256651731E0
6.685985629E0,-3.513790131E0,1.368913651E-1,-6.336961985E-1,3.573098263E0
6.690728025E0,-3.898920059E0,-6.483211517E-1,-1.487137914E0,4.222970177E0
6.695470473E0,-4.060302734E0,-1.271675110E0,-1.933511019E0,4.673508397E0
6.700212868E0,-4.265254974E0,-1.759950638E0,-2.220927715E0,5.120775933E0
6.704955316E0,-4.197673798E0,-2.197288990E0,-2.226189375E0,5.234927254E0
6.709697712E0,-4.091793060E0,-2.662929058E0,-2.108222008E0,5.317759082E0
6.714440108E0,-3.771268606E0,-3.099544048E0,-1.225851655E0,5.033125519E0
6.719182556E0,-3.393100739E0,-3.547839642E0,-3.101503849E-2,4.909303482E0
6.723924952E0,-2.888510466E0,-3.857119560E0,8.143991232E-1,4.887137193E0
6.728667348E0,-2.363881826E0,-4.197096348E0,2.001187325E0,5.216158141E0
6.733409796E0,-1.838959455E0,-4.522035122E0,2.966222525E0,5.712184310E0
6.738152191E0,-1.361896276E0,-4.896397114E0,3.650678158E0,6.257548815E0
6.742894587E0,-9.638290405E-1,-5.248322964E0,4.100643158E0,6.729720251E0
6.747637035E0,-7.616494298E-1,-5.608871460E0,4.259199142E0,7.083807327E0
6.752379431E0,-6.277856827E-1,-5.906361580E0,4.092816830E0,7.213208133E0
6.757121879E0,-5.929118395E-1,-6.188795567E0,3.883543491E0,7.330391877E0
6.761864275E0,-7.262259722E-1,-6.487406731E0,3.743282080E0,7.525025646E0
6.766606671E0,-5.653685927E-1,-6.823832512E0,3.515924215E0,7.697145892E0
6.771349118E0,-4.931044579E-1,-7.145709038E0,3.171789885E0,7.833553519E0
6.776091514E0,-7.033283710E-1,-7.465136528E0,3.301321745E0,8.192780935E0
6.780833910E0,-1.041154265E0,-7.791763783E0,3.643248558E0,8.664227900E0
6.785576358E0,-1.399584055E0,-8.022775650E0,3.958392859E0,9.054978668E0
6.790318754E0,-1.721459150E0,-8.150972366E0,4.218783379E0,9.338088954E0
6.795061202E0,-2.069284201E0,-8.157199860E0,4.535172939E0,9.559792897E0
6.799803598E0,-2.297363043E0,-8.067868233E0,4.697302818E0,9.614209720E0
6.804545993E0,-2.400992393E0,-7.849582195E0,4.956609726E0,9.588987699E0
6.809288441E0,-2.336879492E0,-7.531120300E0,5.124309540E0,9.404112239E0
6.814030837E0,-2.071014643E0,-7.241694927E0,5.200576782E0,9.152991092E0
6.818773285E0,-1.686331034E0,-6.940431595E0,5.403661728E0,8.956163417E0
6.823515681E0,-1.316232920E0,-6.687009335E0,5.540035248E0,8.782969514E0
6.828258077E0,-1.082334638E0,-6.466968536E0,5.581192970E0,8.610623978E0
6.833000525E0,-9.152257442E-1,-6.294674873E0,5.555721283E0,8.445508208E0
6.837742921E0,-8.128095865E-1,-6.167899132E0,5.376892567E0,8.222810517E0
6.842485368E0,-7.341877222E-1,-5.993618488E0,4.910028934E0,7.782729491E0
6.847227764E0,-6.261754036E-1,-5.760179520E0,4.408098698E0,7.280322648E0
6.851970160E0,-5.674307346E-1,-5.599375248E0,3.925444603E0,6.861785200E0
6.856712608E0,-5.482035875E-1,-5.410882950E0,3.425558090E0,6.427490156E0
6.861455004E0,-6.017873883E-1,-5.292897224E0,2.943918705E0,6.086342615E0
6.866197452E0,-6.325547695E-1,-5.238342285E0,2.436887264E0,5.811951047E0
6.870939848E0,-6.719295382E-1,-5.178044796E0,1.910925388E0,5.560150452E0
6.875682296E0,-6.175596118E-1,-5.133802414E0,1.405908585E0,5.358533946E0
6.880424691E0,-5.680679083E-1,-5.086702824E0,9.761083126E-1,5.210569470E0
6.885167087E0,-3.658202887E-1,-4.981827259E0,4.513945580E-1,5.015594119E0
6.889909535E0,-5.337836742E-1,-4.749637127E0,3.733153343E-1,4.794094512E0
6.894651931E0,-8.082020283E-1,-4.423551083E0,8.485746384E-2,4.497576624E0
6.899394379E0,-1.009360075E0,-3.953025341E0,-2.109441757E-1,4.085304708E0
6.904136775E0,-1.228157282E0,-3.294718742E0,-5.046732426E-1,3.552215785E0
6.908879223E0,-1.395334601E0,-2.498786449E0,-1.052750349E0,3.049454979E0
6.913621618E0,-1.645279527E0,-1.579385281E0,-1.575293541E0,2.771813905E0
6.918364066E0,-1.840002298E0,-6.149797440E-1,-1.940162897E0,2.743727503E0
6.923106462E0,-1.869794607E0,4.355449677E-1,-2.575521231E0,3.212341965E0
6.927848858E0,-1.565329432E0,1.600965500E0,-4.107136250E0,4.677810913E0
6.932591306E0,-9.774772525E-1,2.761508942E0,-6.478031635E0,7.109591218E0
6.937333702E0,-3.507505655E-1,3.924433708E0,-9.217847824E0,1.002461592E1
6.942076150E0,3.066428006E-1,4.992136955E0,-1.198733234E1,1.298890288E1
6.946818546E0,8.419247270E-1,5.881751060E0,-1.429116249E1,1.547711724E1
6.951560993E0,1.196191549E0,6.624898911E0,-1.652480125E1,1.784346425E1
6.956303389E0,1.347524166E0,7.180287361E0,-1.841641617E1,1.981253978E1
6.961045837E0,1.289410353E0,7.536334038E0,-1.925312996E1,2.071574095E1
6.965788233E0,1.010169625E0,7.487496376E0,-1.794995117E1,1.947520967E1
6.970530681E0,7.354426384E-1,7.147427559E0,-1.444116020E1,1.612990095E1
6.975273077E0,6.026425362E-1,6.640832901E0,-9.218339920E0,1.137724178E1
6.980015525E0,5.410885811E-1,5.995551109E0,-3.345146179E0,6.886901547E0
6.984757921E0,4.878115654E-1,5.324079514E0,2.104163885E0,5.745545096E0
6.989500316E0,3.381177187E-1,4.485488892E0,6.147533417E0,7.617486547E0
6.994242764E0,-1.242535412E-1,3.501002312E0,7.856890678E0,8.602510521E0
6.998985160E0,-4.644910693E-1,2.510411263E0,6.990758896E0,7.442353566E0
7.003727608E0,-4.033412933E-1,1.477958679E0,4.391022682E0,4.650604934E0
7.008470004E0,-7.443991303E-2,8.982753754E-2,8.965427876E-1,9.041013533E-1
7.013212452E0,4.156137705E-1,-1.216532707E0,-3.149412394E0,3.401688560E0
7.017954848E0,-3.592690229E0,-2.404673100E0,8.888034821E0,9.883675368E0
7.022697296E0,-3.876206160E0,-6.814718246E0,-9.258899689E0,1.213229502E1
7.027439691E0,1.993703604E0,6.568231583E-1,-1.935319901E1,1.946670446E1
7.032182139E0,1.083156204E1,1.626575470E0,-4.919506550E0,1.200708244E1
7.036924535E0,9.678319931E0,4.778612137E0,-1.869591141E1,2.158800857E1
7.041666983E0,7.218777180E0,7.074029922E0,-1.902347183E1,2.154170661E1
7.046409379E0,4.502094269E0,8.629384995E0,-1.147850227E1,1.504962301E1
7.051151827E0,2.604845762E0,1.008741856E1,-1.885004044E0,1.058746782E1
7.055894223E0,2.583063364E0,1.073605251E1,1.024114037E1,1.506041154E1
7.060636671E0,3.219179392E0,1.025953102E1,2.039504814E1,2.305599882E1
7.065379066E0,1.812485695E0,8.168344498E0,2.365243912E1,2.508873916E1
7.070121514E0,1.388951063E0,6.630669594E0,2.096623802E1,2.203356760E1
7.074863910E0,-1.037603855E0,4.895080566E0,1.794890976E1,1.863335174E1
7.079606358E0,-5.676815510E0,3.377008438E0,1.429767895E1,1.574973154E1
7.084348754E0,-9.352124214E0,2.545045853E0,8.836736679E0,1.311592165E1
7.089091202E0,-1.185784531E1,1.610965729E0,3.390503168E0,1.243781402E1
7.093833598E0,-1.302016258E1,8.103914261E-1,-1.442065239E0,1.312482076E1
7.098576046E0,-1.226048279E1,5.854778290E-1,-5.818442822E0,1.358368504E1
7.103318441E0,-1.112467957E1,9.849634171E-1,-2.890209436E0,1.153611542E1
7.108060889E0,-9.429739952E0,1.633835793E0,2.458744526E0,9.881034339E0
7.112803337E0,-7.296535969E0,2.642870903E0,7.596019268E0,1.085926851E1
7.117545733E0,-5.500947475E0,3.638847351E0,1.108394432E1,1.289788567E1
7.122288181E0,-4.257390022E0,4.202144623E0,1.264546967E1,1.398897038E1
7.127030577E0,-3.753201723E0,4.282586098E0,1.163125801E1,1.295041427E1
7.131773025E0,-3.983921528E0,3.910035133E0,8.158880234E0,9.885713538E0
7.136515421E0,-4.450990200E0,3.510581970E0,3.680068493E0,6.758580002E0
7.141257868E0,-4.034287453E0,3.397644043E0,-2.355620861E-1,5.279673265E0
7.146000264E0,-2.182318687E0,3.383464813E0,-2.093865871E0,4.538129932E0
7.150742712E0,-5.239835382E-1,3.487380028E0,-2.111462116E0,4.110310265E0
7.155485108E0,-1.653768420E-1,3.396942139E0,-1.227007389E0,3.615537654E0
7.160227556E0,-5.098342896E-2,3.022607803E0,5.837011337E-2,3.023601216E0
7.164970004E0,4.841661453E-2,2.408688545E0,1.225412726E0,2.702917133E0
7.169712400E0,2.173118591E-1,1.864809036E0,2.138494253E0,2.845680034E0
7.174454848E0,3.625003695E-1,1.279116631E0,2.044529200E0,2.438779515E0
7.179197243E0,1.397424459E0,4.419765472E-1,1.468228698E0,2.074568364E0
7.183939691E0,2.217011452E0,-1.602258682E-1,9.766542912E-1,2.427893266E0
7.188682087E0,2.765959501E0,-9.887142181E-1,1.000909448E0,3.103209224E0
7.193424535E0,3.156178236E0,-1.829916000E0,1.590133071E0,3.979770949E0
7.198166983E0,3.413959742E0,-2.544839382E0,2.410927534E0,4.893250471E0
7.202909379E0,3.511115789E0,-3.231599808E0,3.488765240E0,5.911231200E0
7.207651827E0,3.475064278E0,-3.660987377E0,3.928627968E0,6.396328480E0
7.212394223E0,3.158346653E0,-3.965438366E0,3.762398481E0,6.313121046E0
7.217136671E0,2.679126501E0,-4.296355724E0,3.379583836E0,6.087526445E0
7.221879066E0,2.550775290E0,-4.273888111E0,2.982340574E0,5.802321041E0
7.226621514E0,2.499804974E0,-4.233478546E0,2.085165977E0,5.340344807E0
7.231363910E0,2.659871101E0,-4.098695278E0,1.118821383E0,5.012582024E0
7.236106358E0,2.798143387E0,-3.958145142E0,8.553996682E-2,4.848075542E0
7.240848806E0,2.506487608E0,-4.297334671E0,-1.235306740E0,5.125968020E0
7.245591202E0,2.276153803E0,-4.800027370E0,-2.245070457E0,5.767276675E0
7.250333650E0,2.069206238E0,-5.021183968E0,-2.571362734E0,6.008810964E0
7.255076046E0,1.991645098E0,-4.963370800E0,-2.578263044E0,5.937098637E0
7.259818493E0,1.864568472E0,-4.834826946E0,-2.339791298E0,5.685665353E0
7.264560941E0,1.599411368E0,-4.877135277E0,-2.245903730E0,5.602557345E0
7.269303337E0,1.210063934E0,-4.793676853E0,-1.929840446E0,5.307341768E0
7.274045785E0,8.873258233E-1,-4.223706722E0,-1.088880658E0,4.451146670E0
7.278788181E0,2.231405973E-1,-3.997893333E0,-4.466999173E-1,4.028955652E0
7.283530629E0,-4.199774265E-1,-3.750341892E0,5.316615105E-2,3.774158448E0
7.288273077E0,-7.390387058E-1,-3.079656601E0,5.694913864E-1,3.217884931E0
7.293015473E0,-8.133654594E-1,-2.699019909E0,5.638400316E-1,2.874749975E0
7.297757921E0,-4.173393250E-1,-2.356858253E0,2.392030954E-1,2.405446125E0
7.302500368E0,1.415401697E-1,-1.897434235E0,-2.016264200E-2,1.902812872E0
7.307242764E0,6.753041744E-1,-1.404373169E0,-1.769100428E-1,1.568310202E0
7.311985212E0,9.432125688E-1,-1.054476738E0,-3.684104085E-1,1.461949852E0
7.316727608E0,1.307196617E0,-7.421951294E-1,-5.881793499E-1,1.614178291E0
7.321470056E0,1.662431002E0,-4.410657883E-1,-7.215662003E-1,1.865173892E0
7.326212504E0,1.829657316E0,-2.634067535E-1,-9.768704176E-1,2.090766564E0
7.330954900E0,1.904777050E0,-1.827135086E-1,-1.375613928E0,2.356665762E0
7.335697348E0,2.043384552E0,-1.797208786E-1,-1.647213697E0,2.630785622E0
7.340439796E0,1.836102605E0,-4.504384995E-1,-2.095564842E0,2.822332302E0
7.345182191E0,1.454818010E0,-8.701829910E-1,-2.957778931E0,3.409130400E0
7.349924639E0,1.392185926E0,-9.556684494E-1,-3.688644886E0,4.056794909E0
7.354667087E0,1.255521536E0,-1.106560707E0,-4.360295296E0,4.670437452E0
7.359409483E0,1.049350858E0,-1.112468719E0,-4.582459927E0,4.830907043E0
7.364151931E0,9.743608236E-1,-1.026408195E0,-4.289923668E0,4.517337476E0
7.368894327E0,1.020586252E0,-8.846321106E-1,-3.790519238E0,4.023954070E0
7.373636775E0,1.029587865E0,-6.540946960E-1,-3.147827387E0,3.375901109E0
7.378379223E0,9.455668926E-1,-4.022932053E-1,-2.380179882E0,2.592526344E0
7.383121618E0,8.560576439E-1,-3.544988632E-1,-1.589757681E0,1.840063482E0
7.387864066E0,1.099880099E0,-1.282949448E-1,-8.715797663E-1,1.409200878E0
7.392606514E0,1.470604300E0,2.614755630E-1,-2.850540876E-1,1.520625632E0
7.397348910E0,1.515635252E0,7.235116959E-1,-5.245256424E-2,1.680288863E0
7.402091358E0,1.416548252E0,1.128428459E0,4.630804062E-2,1.811657852E0
7.406833806E0,1.558091164E0,1.474032402E0,-5.805782080E-1,2.222046501E0
7.411576254E0,1.906500816E0,1.949612617E0,-1.589505434E0,3.156305157E0
7.416318650E0,2.263598442E0,2.533926010E0,-2.687322617E0,4.332015902E0
7.421061098E0,2.706811905E0,3.263209343E0,-3.891866446E0,5.755170748E0
7.425803493E0,3.117729187E0,3.996641159E0,-4.969153404E0,7.098299895E0
7.430545941E0,3.536130905E0,4.469134331E0,-5.782843590E0,8.119030941E0
7.435288389E0,3.953960896E0,4.606842041E0,-5.972909927E0,8.516598696E0
7.440030837E0,4.104428768E0,4.237571716E0,-5.492026329E0,8.060130443E0
7.444773233E0,4.049840450E0,3.580974579E0,-4.615112782E0,7.108013266E0
7.449515681E0,3.942743778E0,3.006892204E0,-3.365660667E0,5.992854158E0
7.454258077E0,3.637485504E0,2.590495110E0,-2.272812843E0,5.010752830E0
7.459000525E0,3.299222469E0,2.332989693E0,-1.485978842E0,4.305327273E0
7.463742973E0,2.990393400E0,2.424854279E0,-1.117073536E0,4.008768420E0
7.468485421E0,2.766553402E0,2.762681007E0,-1.362726927E0,4.140440647E0
7.473227816E0,2.461056709E0,3.116869926E0,-2.219568729E0,4.549523449E0
7.477970264E0,2.328669786E0,3.585867882E0,-3.442962170E0,5.489548246E0
7.482712712E0,2.450197220E0,4.174712181E0,-4.359416008E0,6.514307035E0
7.487455108E0,2.964797974E0,4.740233421E0,-4.921642780E0,7.448651393E0
7.492197556E0,3.595588446E0,5.096310616E0,-5.062538147E0,8.033052387E0
7.496940004E0,4.331187248E0,5.461007118E0,-4.838920593E0,8.485100720E0
7.501682452E0,5.198541641E0,5.707925797E0,-4.374698639E0,8.873738799E0
7.506424848E0,6.067312241E0,5.754072189E0,-3.858216286E0,9.209096454E0
7.511167296E0,7.013619423E0,5.662686348E0,-3.152723789E0,9.549688025E0
7.515909743E0,7.582020760E0,5.114378929E0,-2.615249634E0,9.512278448E0
7.520652139E0,7.132564068E0,4.311264992E0,-2.227745056E0,8.626895389E0
7.525394587E0,7.153670311E0,4.294404984E0,-2.298134804E0,8.654382512E0
7.530137035E0,6.625344753E0,4.847922325E0,-2.047934294E0,8.461180700E0
7.534879483E0,5.101585388E0,5.327769279E0,-1.396959782E0,7.507515941E0
7.539621879E0,2.872721434E0,5.489852905E0,-6.475375295E-1,6.229792790E0
7.544364327E0,1.420600653E0,5.717242241E0,-5.072237253E-1,5.912887701E0
7.549106775E0,4.568129778E-1,5.649126053E0,-1.055225730E0,5.764963538E0
7.553849171E0,-4.245984554E-2,5.561239243E0,-1.402115345E0,5.735426069E0
7.558591618E0,3.158211708E-3,5.700274467E0,-1.268093109E0,5.839623200E0
7.563334066E0,6.126334667E-1,6.087800980E0,-6.157595515E-1,6.149455289E0
7.568076514E0,1.345895767E0,6.781126022E0,3.520878553E-1,6.922360248E0
7.572818910E0,2.090721369E0,7.591113091E0,1.327997565E0,7.984966583E0
7.577561358E0,2.751465559E0,8.381412506E0,2.246065855E0,9.102936347E0
7.582303806E0,3.354052544E0,9.125710487E0,2.998788595E0,1.017452669E1
7.587046254E0,3.878406525E0,9.725871086E0,3.468477011E0,1.103018306E1
7.591788650E0,4.469558716E0,1.045449638E1,4.047392845E0,1.206875464E1
7.596531098E0,5.104868889E0,1.125390911E1,5.027948856E0,1.334130527E1
7.601273546E0,5.543406487E0,1.218843460E1,6.415598869E0,1.484746451E1
7.606015993E0,5.629520416E0,1.303294373E1,8.158385277E0,1.637401516E1
7.610758441E0,5.503702641E0,1.344064331E1,9.613545418E0,1.741728713E1
7.615500837E0,5.021231651E0,1.326127720E1,1.071305466E1,1.777199427E1
7.620243285E0,3.835929394E0,1.254321289E1,1.126462555E1,1.728983322E1
7.624985733E0,2.014893532E0,1.120319462E1,1.117877388E1,1.595419541E1
7.629728181E0,-2.178472281E-1,9.511917114E0,1.080382061E1,1.439606072E1
7.634470577E0,-2.087089539E0,7.367048264E0,1.123736286E1,1.359807585E1
7.639213025E0,-2.180094481E0,4.960651398E0,1.107064247E1,1.232558311E1
7.643955473E0,-4.225272179E0,3.696248055E0,1.047527695E1,1.188472136E1
7.648697921E0,-6.533687592E0,2.285385132E0,9.452181816E0,1.171562204E1
7.653440316E0,-8.635185242E0,7.850160599E-1,8.334617615E0,1.202699153E1
7.658182764E0,-1.009759808E1,-5.540876389E-1,7.262586594E0,1.245044835E1
7.662925212E0,-1.093052769E1,-1.782435417E0,6.489154816E0,1.283599010E1
7.667667660E0,-1.057906437E1,-2.868954182E0,5.434273243E0,1.223432984E1
7.672410108E0,-1.069131374E1,-4.522218227E0,-8.454575539E-1,1.163913423E1
7.677152504E0,-1.023947811E1,-5.847732544E0,-5.535892010E0,1.302647259E1
7.681894952E0,-9.352405548E0,-6.272157192E0,-8.119306564E0,1.388274413E1
7.686637400E0,-8.367297173E0,-6.293615341E0,-8.690278053E0,1.360669646E1
7.691379848E0,-7.503965378E0,-6.098379612E0,-7.819533348E0,1.243562753E1
7.696122296E0,-6.901868343E0,-5.951172829E0,-5.891754150E0,1.085195888E1
7.700864691E0,-6.538256645E0,-5.879560471E0,-3.343357563E0,9.407235039E0
7.705607139E0,-6.220856667E0,-6.006777287E0,-7.445354462E-1,8.679560131E0
7.710349587E0,-5.987184525E0,-6.264864922E0,1.663935781E0,8.824034978E0
7.715092035E0,-5.491578102E0,-6.476342201E0,3.295568943E0,9.108304618E0
7.719834483E0,-5.249752522E0,-6.612417698E0,4.362317562E0,9.503356452E0
7.724576879E0,-5.369127274E0,-7.017566681E0,5.041458130E0,1.017300692E1
7.729319327E0,-6.544003487E0,-8.313498497E0,4.973152161E0,1.169061510E1
7.734061775E0,-4.850243092E0,-8.103661537E0,4.596873283E0,1.050359140E1
7.738804223E0,-2.780680656E0,-7.251439571E0,4.274690151E0,8.865017578E0
7.743546671E0,-1.009429693E0,-6.669669628E0,3.831818104E0,7.757981131E0
7.748289118E0,5.727792978E-1,-6.485858917E0,3.311047077E0,7.304620097E0
7.753031514E0,1.783431053E0,-6.733967781E0,3.166622877E0,7.652087875E0
7.757773962E0,2.107987881E0,-7.351844788E0,3.458669662E0,8.393785232E0
7.762516410E0,1.641341925E0,-8.238796234E0,3.925321102E0,9.272535384E0
7.767258858E0,1.261949062E0,-8.612467766E0,4.349228382E0,9.730514065E0
7.772001306E0,1.126646280E0,-8.714757919E0,4.674000740E0,9.953020665E0
7.776743754E0,1.022348046E0,-8.691573143E0,4.829118252E0,9.995450081E0
7.781486150E0,9.084612131E-1,-8.533174515E0,4.992824078E0,9.928175127E0
7.786228598E0,1.031396389E0,-8.260937691E0,5.211493015E0,9.821737600E0
7.790971046E0,1.216335893E0,-7.884315014E0,5.440330029E0,9.656038891E0
7.795713493E0,1.432161093E0,-7.482295990E0,5.428337097E0,9.354286842E0
7.800455941E0,1.441799402E0,-7.129192829E0,5.292463303E0,8.995240059E0
7.805198389E0,1.446004391E0,-6.822793484E0,5.013003826E0,8.589042262E0
7.809940785E0,1.661993504E0,-6.431722164E0,4.788019180E0,8.188675111E0
7.814683233E0,1.729964375E0,-6.066311836E0,4.549787045E0,7.777755344E0
7.819425681E0,1.704613328E0,-5.712560654E0,4.058228016E0,7.211675981E0
7.824168129E0,1.749101639E0,-5.401949883E0,3.298290968E0,6.566516762E0
7.828910577E0,1.586440206E0,-5.103676319E0,2.539641857E0,5.917270085E0
7.833653025E0,1.250121355E0,-4.782008171E0,1.939634562E0,5.309669272E0
7.838395473E0,9.023022056E-1,-4.468228817E0,1.382755756E0,4.763531412E0
7.843137868E0,5.251488686E-1,-4.181752205E0,8.800532818E-1,4.305499578E0
7.847880316E0,3.602989018E-2,-3.977585793E0,5.531961918E-1,4.016031987E0
7.852622764E0,-6.142699718E-1,-3.733548641E0,2.181241512E-1,3.790025224E0
7.857365212E0,-1.199497938E0,-3.370460510E0,-6.936955452E-2,3.578213449E0
7.862107660E0,-1.828466177E0,-2.835553169E0,-5.883061886E-1,3.424872918E0
7.866850108E0,-2.401582241E0,-2.250609398E0,-1.330208540E0,3.549971082E0
7.871592556E0,-2.676485777E0,-1.684361458E0,-1.876770258E0,3.677351797E0
7.876334952E0,-3.364306688E0,-9.348964691E-1,-1.557739019E0,3.823498627E0
7.881077400E0,-4.008292198E0,-1.829938889E-1,-1.412690878E0,4.253890998E0
7.885819848E0,-4.015274525E0,6.159095764E-1,-1.448178291E0,4.312655154E0
7.890562296E0,-3.970188856E0,1.386750221E0,-1.015368223E0,4.326251074E0
7.895304743E0,-4.709703922E0,1.988593102E0,-2.158272028E0,5.549229830E0
7.900047191E0,-5.422402382E0,2.429909706E0,-4.867287636E0,7.680976351E0
7.904789639E0,-4.986562729E0,3.170344353E0,-8.260880470E0,1.015672375E1
7.909532087E0,-3.915988445E0,3.942514420E0,-1.116073513E1,1.246757371E1
