"Time (s)","Linear Acceleration x (m/s^2)","Linear Acceleration y (m/s^2)","Linear Acceleration z (m/s^2)","Absolute acceleration (m/s^2)"
4.770041667E-3,7.118176679E-1,9.220176154E-1,-1.808622739E0,2.151259419E0
1.476004167E-2,2.132274896E-1,1.064049992E0,-1.690399055E0,2.008760143E0
2.475004167E-2,2.501906633E-2,1.163457336E0,-1.272366405E0,1.724289765E0
3.474004167E-2,4.805820698E-1,1.032803056E0,-1.313077644E0,1.738336612E0
4.473004167E-2,1.030380993E0,7.415292710E-1,-1.292000186E0,1.811302054E0
5.471904167E-2,1.338693565E0,6.879810548E-1,-1.210278915E0,1.931370872E0
6.470904167E-2,1.358330854E0,7.478471875E-1,-1.228419317E0,1.978219438E0
7.469904167E-2,1.254085085E0,7.401703781E-1,-1.278213036E0,1.937630036E0
8.468904167E-2,1.027583758E0,6.706884992E-1,-1.312012866E0,1.796421221E0
9.467904167E-2,8.306773096E-1,6.309829813E-1,-1.398027163E0,1.744317707E0
1.046685000E-1,7.272785832E-1,6.627427179E-1,-1.474553767E0,1.772701571E0
1.146585000E-1,7.123595586E-1,7.608934951E-1,-1.302777774E0,1.668425899E0
1.246485000E-1,6.759659037E-1,7.930344701E-1,-1.373329108E0,1.723910210E0
1.346385000E-1,5.974531464E-1,8.169431502E-1,-1.422425255E0,1.745749116E0
1.446285000E-1,4.604553688E-1,9.822655714E-1,-1.438430253E0,1.801651019E0
1.546175000E-1,3.133591573E-1,1.119478673E0,-1.478041631E0,1.880434397E0
1.646075000E-1,2.590356734E-1,1.077965196E0,-1.526208655E0,1.886377826E0
1.745975000E-1,2.469633657E-1,9.423641717E-1,-1.811663876E0,2.056980101E0
1.845875000E-1,1.948398967E-1,9.118949157E-1,-2.007056773E0,2.213095527E0
1.945775000E-1,2.683093574E-1,1.043508723E0,-2.036384068E0,2.303857729E0
2.045675000E-1,4.254246998E-1,1.131582994E0,-2.212338481E0,2.521092581E0
2.145575000E-1,5.282130499E-1,1.117842622E0,-2.367962710E0,2.671297166E0
2.245475000E-1,5.598195163E-1,1.181164459E0,-2.382517015E0,2.717523633E0
2.345375000E-1,6.011116762E-1,1.315473248E0,-2.311418965E0,2.726621123E0
2.445275000E-1,6.757144003E-1,1.508009196E0,-2.106401551E0,2.677239097E0
2.545165000E-1,7.455756904E-1,1.688318908E0,-1.748021611E0,2.542023485E0
2.645065000E-1,7.919264958E-1,1.753852747E0,-1.626857362E0,2.519883313E0
2.744965000E-1,7.666392615E-1,1.803233652E0,-1.577019789E0,2.515229369E0
2.844865000E-1,5.937353405E-1,1.856600897E0,-1.376880707E0,2.386480469E0
2.944765000E-1,3.755685617E-1,1.900562896E0,-1.391096458E0,2.385024197E0
3.044665000E-1,1.476337168E-1,1.953619361E0,-1.389938124E0,2.402155764E0
3.144565000E-1,-3.511399180E-2,1.988735692E0,-1.329479084E0,2.392450058E0
3.244465000E-1,-1.746567701E-1,2.036043760E0,-1.318082276E0,2.431731906E0
3.344365000E-1,-1.642462412E-1,2.056027204E0,-1.176617664E0,2.374584978E0
3.444265000E-1,-3.459358960E-2,2.101012757E0,-1.041770346E0,2.345364956E0
3.544155000E-1,7.624228343E-2,2.142756322E0,-9.883852673E-1,2.360958064E0
3.644055000E-1,1.459501572E-1,2.199238087E0,-7.127826047E-1,2.316464688E0
3.743955000E-1,3.224344745E-2,2.362551989E0,-3.481794727E-1,2.388288192E0
3.843855000E-1,-1.919449402E-1,2.549786851E0,2.596689999E-2,2.557133185E0
3.943755000E-1,-3.429353973E-1,2.698612230E0,3.684120083E-1,2.745148460E0
4.043655000E-1,-3.984516402E-1,2.625041101E0,5.881451100E-1,2.719470383E0
4.143555000E-1,-5.696680547E-1,2.422113774E0,8.554306930E-1,2.631143953E0
4.243455000E-1,-8.015370525E-1,2.249296392E0,1.288343922E0,2.713231647E0
4.343355000E-1,-8.453492162E-1,2.034113886E0,1.883274141E0,2.898095252E0
4.443255000E-1,-7.951100855E-1,1.725590815E0,2.453153134E0,3.102873508E0
4.543155000E-1,-7.121500821E-1,1.347427112E0,2.722242583E0,3.119827278E0
4.643045000E-1,-6.074920848E-1,8.980414000E-1,2.808146952E0,3.010185093E0
4.742945000E-1,-8.351186353E-1,4.821421069E-1,2.934850268E0,3.089211913E0
4.842845000E-1,-1.366532597E0,2.252107733E-1,2.985978906E0,3.291534788E0
4.942745000E-1,-1.928456453E0,1.369757044E-1,3.061700349E0,3.621010310E0
5.042645000E-1,-2.258187230E0,5.101695657E-4,2.936940063E0,3.704730322E0
5.142545000E-1,-2.362809413E0,-2.770451707E-1,2.668386803E0,3.574900066E0
5.242445000E-1,-2.129696566E0,-5.151326823E-1,2.356005739E0,3.217410789E0
5.342345000E-1,-1.644519170E0,-6.307110858E-1,2.050506263E0,2.703112226E0
5.442245000E-1,-1.208795550E0,-6.444958967E-1,1.784810538E0,2.249913398E0
5.542145000E-1,-1.034199664E0,-5.831077337E-1,1.528703662E0,1.935592534E0
5.642035000E-1,-1.025416196E0,-5.504472336E-1,1.483653204E0,1.885655685E0
5.741935000E-1,-1.102847583E0,-3.894207618E-1,1.549505131E0,1.941362273E0
5.841835000E-1,-1.236641818E0,-2.093794370E-1,1.399594216E0,1.879358057E0
5.941735000E-1,-1.361108135E0,-2.150626382E-1,1.188198075E0,1.819527949E0
6.041635000E-1,-1.523331386E0,-3.142121199E-1,1.058858834E0,1.881608301E0
6.141535000E-1,-1.612977973E0,-3.984430155E-1,9.808429438E-1,1.929380123E0
6.241435000E-1,-1.822533703E0,-4.099281165E-1,1.279472526E0,2.264226161E0
6.341335000E-1,-2.074988409E0,-3.536384332E-1,1.698462950E0,2.704702096E0
6.441235000E-1,-2.046226978E0,-4.231931099E-1,9.925806445E-1,2.313299287E0
6.541135000E-1,-1.817473231E0,-5.096833697E-1,4.157148135E-1,1.932823036E0
6.641025000E-1,-1.463870465E0,-5.693141520E-1,1.377106994E-1,1.576705293E0
6.740925000E-1,-1.182438933E0,-5.832059669E-1,-2.767487168E-1,1.347175149E0
6.840825000E-1,-1.022549452E0,-5.776929197E-1,-7.959621710E-1,1.418764346E0
6.940725000E-1,-9.501927164E-1,-5.943677169E-1,-1.344526309E0,1.750397148E0
7.040625000E-1,-9.530411875E-1,-5.371416020E-1,-1.860194011E0,2.158038546E0
7.140525000E-1,-1.066411829E0,-4.637081748E-1,-2.335350450E0,2.608854381E0
7.240425000E-1,-1.122368805E0,-3.920356366E-1,-2.740824450E0,2.987561270E0
7.340325000E-1,-1.113387263E0,-3.413920248E-1,-3.113378041E0,3.324049118E0
7.440225000E-1,-1.112954057E0,-3.096457368E-1,-3.387373304E0,3.578944693E0
7.540125000E-1,-1.142521088E0,-2.459704354E-1,-3.622192807E0,3.806065767E0
7.640025000E-1,-1.154491362E0,-1.613083076E-1,-3.754038749E0,3.930862196E0
7.739915000E-1,-1.158970036E0,-6.517452747E-2,-3.772287909E0,3.946848785E0
7.839815000E-1,-1.127453909E0,5.050386339E-2,-3.583916348E0,3.757413918E0
7.939715000E-1,-1.030047702E0,1.384281528E-1,-3.449389458E0,3.602561346E0
8.039615000E-1,-9.209926716E-1,1.878494042E-1,-3.443807706E0,3.569779603E0
8.139515000E-1,-7.397908938E-1,1.713155249E-1,-3.276168033E0,3.363021938E0
8.239415000E-1,-5.028246588E-1,1.997242221E-1,-2.951848124E0,3.001021451E0
8.339315000E-1,-3.502749686E-1,2.926051962E-1,-2.620888116E0,2.660331722E0
8.439215000E-1,-2.551619295E-1,3.860606593E-1,-2.356377037E0,2.401387762E0
8.539115000E-1,-2.586776776E-1,5.003137913E-1,-1.987953919E0,2.066201543E0
8.639015000E-1,-2.743240592E-1,6.895074704E-1,-1.590062588E0,1.754700338E0
8.738905000E-1,-3.293251989E-1,9.042245382E-1,-1.186564947E0,1.527747845E0
8.838805000E-1,-4.007744466E-1,1.114955559E0,-7.429255861E-1,1.398457894E0
8.938705000E-1,-3.719907966E-1,1.292279683E0,-3.557966405E-1,1.391026664E0
9.038605000E-1,-1.876531570E-1,1.333566580E0,6.071807206E-2,1.348072778E0
9.138505000E-1,2.787060723E-2,1.277730056E0,3.670537001E-1,1.329698945E0
9.238405000E-1,2.736751279E-1,1.164652214E0,6.158667594E-1,1.345587129E0
9.338305000E-1,5.081198973E-1,1.022092419E0,5.690685689E-1,1.275420628E0
9.438205000E-1,7.289633853E-1,8.543562672E-1,4.895476055E-1,1.225140444E0
9.538105000E-1,9.616670001E-1,8.072845732E-1,4.612786567E-1,1.337643376E0
9.638005000E-1,1.132107928E0,8.704045352E-1,5.643738395E-1,1.535509767E0
9.737905000E-1,1.281952038E0,9.113655965E-1,6.328184223E-1,1.695419545E0
9.837795000E-1,1.341663512E0,9.762207198E-1,7.147940469E-1,1.806653924E0
9.937695000E-1,1.365824061E0,9.690160730E-1,9.474910104E-1,1.924111933E0
1.003759500E0,1.375757165E0,9.057606018E-1,1.262016249E0,2.075040977E0
1.013749500E0,1.391839200E0,8.748414025E-1,1.502170166E0,2.226898976E0
1.023739500E0,1.432317282E0,8.089991230E-1,1.426150516E0,2.177135198E0
1.033729500E0,1.391776197E0,7.743472074E-1,1.439280438E0,2.146667827E0
1.043719500E0,1.258516836E0,7.261474393E-1,1.521928493E0,2.104143785E0
1.053709500E0,1.078098878E0,6.491195825E-1,1.585922760E0,2.024550425E0
1.063699500E0,9.372018843E-1,5.809546427E-1,1.776348447E0,2.090758110E0
1.073689500E0,8.909222688E-1,6.019269973E-1,2.192782468E0,2.442202603E0
1.083678500E0,9.363556460E-1,6.942184259E-1,2.754373033E0,2.990864745E0
1.093668500E0,9.685914190E-1,9.019325759E-1,3.316477568E0,3.570808756E0
1.103658500E0,9.304055925E-1,1.130786018E0,3.886219736E0,4.152955023E0
1.113648875E0,7.543586469E-1,1.259607196E0,4.440774931E0,4.677194591E0
1.123638875E0,5.402163604E-1,1.290089754E0,4.680411955E0,4.884917743E0
1.133628875E0,3.157319574E-1,1.233445584E0,4.596800864E0,4.769869271E0
1.143618875E0,1.729226321E-1,1.086591301E0,4.344271899E0,4.481437406E0
1.153608875E0,1.771927075E-1,8.918712719E-1,4.039051920E0,4.140141548E0
1.163598875E0,3.250078341E-1,6.964261883E-1,3.595123706E0,3.676350635E0
1.173588875E0,5.900742526E-1,5.539273502E-1,3.076073390E0,3.180762586E0
1.183578875E0,7.892991225E-1,4.378561726E-1,2.545719236E0,2.700999363E0
1.193567875E0,9.729385315E-1,3.128541040E-1,2.062839210E0,2.302127860E0
1.203557875E0,1.087794658E0,1.550786841E-1,1.571834478E0,1.917813923E0
1.213547875E0,1.102895092E0,-3.485539868E-2,1.130445126E0,1.579714742E0
1.223537875E0,1.116852103E0,-2.015472378E-1,7.730732453E-1,1.373179578E0
1.233527875E0,1.094291207E0,-3.292920890E-1,4.770240390E-1,1.238328898E0
1.243517875E0,1.029221344E0,-4.252890444E-1,2.760990912E-1,1.147343913E0
1.253507875E0,9.234845357E-1,-5.140946554E-1,-3.901554644E-2,1.057657419E0
1.263497875E0,7.857624342E-1,-6.218730193E-1,-4.069018900E-1,1.081534929E0
1.273487875E0,5.519085990E-1,-7.327751121E-1,-7.767663467E-1,1.202051756E0
1.283477875E0,2.469637312E-1,-8.402843580E-1,-1.240859268E0,1.518815529E0
1.293466875E0,-9.053536355E-2,-9.256002045E-1,-1.779763806E0,2.008106470E0
1.303456875E0,-4.061761044E-1,-1.011252266E0,-2.352003320E0,2.592205584E0
1.313446875E0,-7.151504347E-1,-1.096302356E0,-2.890981532E0,3.173498577E0
1.323436875E0,-9.484826982E-1,-1.184372826E0,-3.410034188E0,3.732384169E0
1.333426875E0,-1.081929754E0,-1.274000117E0,-3.840894459E0,4.188808726E0
1.343416875E0,-1.257561255E0,-1.317747815E0,-4.206925482E0,4.584336552E0
1.353406875E0,-1.415650378E0,-1.324227407E0,-4.503139579E0,4.902643194E0
1.363396875E0,-1.586205326E0,-1.275033613E0,-4.612587177E0,5.041598806E0
1.373386875E0,-1.734530623E0,-1.187451678E0,-4.637831361E0,5.091965996E0
1.383376875E0,-1.821612328E0,-1.024785646E0,-4.640166155E0,5.089164866E0
1.393366875E0,-1.873563231E0,-8.496282086E-1,-4.598971351E0,5.038119169E0
1.403355875E0,-1.877245077E0,-7.153208810E-1,-4.479176520E0,4.909048313E0
1.413345875E0,-1.835162373E0,-5.693825644E-1,-4.249869772E0,4.664055159E0
1.423335875E0,-1.694901849E0,-4.004038793E-1,-3.934207250E0,4.302441427E0
1.433325875E0,-1.531474072E0,-1.848869124E-1,-3.557740703E0,3.877771900E0
1.443315875E0,-1.319802234E0,-3.460966945E-3,-3.305504099E0,3.559248132E0
1.453305875E0,-1.119782289E0,4.652687967E-2,-3.187792631E0,3.379067768E0
1.463295875E0,-1.038245937E0,5.222645313E-2,-2.956197283E0,3.133653555E0
1.473285875E0,-1.062103600E0,1.149843264E-1,-2.636601924E0,2.844811972E0
1.483275875E0,-1.233145037E0,2.965386182E-1,-2.390921803E0,2.706490144E0
1.493265875E0,-1.429915684E0,5.403870991E-1,-2.085861452E0,2.586019157E0
1.503254875E0,-1.578835496E0,7.540616083E-1,-1.623627945E0,2.386943262E0
1.513244875E0,-1.748833789E0,9.363494334E-1,-1.126495916E0,2.281263451E0
1.523234875E0,-1.897093597E0,1.108516605E0,-6.246709120E-1,2.284291340E0
1.533224875E0,-1.916159174E0,1.247902532E0,-1.107819325E-1,2.289366582E0
1.543214875E0,-1.832133954E0,1.283047806E0,4.837243634E-1,2.288430851E0
1.553204875E0,-1.672465352E0,1.311747695E0,1.120808330E0,2.402921905E0
1.563194875E0,-1.503778735E0,1.339708495E0,1.653765079E0,2.605975494E0
1.573184875E0,-1.305532397E0,1.341773147E0,2.112831734E0,2.822911256E0
1.583174875E0,-1.023647047E0,1.326369242E0,2.523095189E0,3.028715565E0
1.593164875E0,-7.617528896E-1,1.286443577E0,3.005411543E0,3.356739949E0
1.603153875E0,-5.461043969E-1,1.229237050E0,3.581790885E0,3.826026618E0
1.613143875E0,-4.068985279E-1,1.319733530E0,4.433275293E0,4.643403151E0
1.623133875E0,-3.102822793E-1,1.597483582E0,5.273383942E0,5.518768620E0
1.633123875E0,-2.235378850E-1,1.820619471E0,5.760017880E0,6.045033533E0
1.643113875E0,-1.374622293E-1,1.818009274E0,6.230932163E0,6.492192943E0
1.653103875E0,-7.446535114E-2,1.575447765E0,6.421794053E0,6.612640895E0
1.663093875E0,3.867129162E-2,1.283696263E0,6.196816583E0,6.328499611E0
1.673083875E0,7.587427430E-2,9.110722125E-1,5.898991578E0,5.969414638E0
1.683073875E0,1.653316671E-2,5.855609331E-1,5.413131226E0,5.444735496E0
1.693063875E0,-6.601345673E-2,4.608766606E-1,4.840083042E0,4.862424182E0
1.703053875E0,-8.071315588E-2,4.921069318E-1,4.370955668E0,4.399311003E0
1.713042875E0,-8.461118393E-2,5.205761477E-1,3.972739817E0,4.007595318E0
1.723032875E0,-2.972382741E-2,3.418963471E-1,3.525603236E0,3.542266901E0
1.733022875E0,-2.125828341E-3,6.900036067E-2,3.157319282E0,3.158073877E0
1.743012875E0,-1.156975679E-1,-2.359170252E-1,2.816770425E0,2.828999540E0
1.753002875E0,-2.923405915E-1,-5.127116427E-1,2.404147620E0,2.475532675E0
1.762992875E0,-4.280433022E-1,-7.390415731E-1,1.938527405E0,2.118322925E0
1.772982875E0,-5.107012969E-1,-9.849041274E-1,1.572679986E0,1.924623156E0
1.782972875E0,-5.408293679E-1,-1.139479659E0,1.194516576E0,1.737175912E0
1.792962875E0,-5.461258489E-1,-1.231334154E0,7.890338051E-1,1.561093075E0
1.802952875E0,-5.421571244E-1,-1.243890757E0,3.424684972E-1,1.399458193E0
1.812942875E0,-6.048667215E-1,-1.292755646E0,-1.098925710E-1,1.431487788E0
1.822931875E0,-6.878936389E-1,-1.376336916E0,-6.555184829E-1,1.672484812E0
1.832921875E0,-7.446522689E-1,-1.489714135E0,-1.256603481E0,2.086338303E0
1.842911875E0,-8.331278776E-1,-1.602322153E0,-1.850376536E0,2.585620171E0
1.852901875E0,-9.097383164E-1,-1.729628317E0,-2.363707107E0,3.066977210E0
1.862891875E0,-9.820727594E-1,-1.865983632E0,-2.875201651E0,3.565549937E0
1.872881875E0,-1.060770727E0,-1.986082518E0,-3.310934408E0,4.004003616E0
1.882871875E0,-1.122604448E0,-2.093107029E0,-3.739121332E0,4.429714000E0
1.892861875E0,-1.131530077E0,-2.037227236E0,-4.051968420E0,4.674302429E0
1.902851875E0,-1.171665511E0,-1.887267205E0,-4.366386069E0,4.898969777E0
1.912841875E0,-9.684237501E-1,-1.729956053E0,-4.659336836E0,5.063596771E0
1.922830875E0,-7.025947085E-1,-1.671834730E0,-4.766673004E0,5.099984531E0
1.932820875E0,-4.948559272E-1,-1.626005423E0,-4.626820469E0,4.929121999E0
1.942810875E0,-1.832092731E-1,-1.472298203E0,-4.595227379E0,4.828803402E0
1.952800875E0,1.004329089E-1,-1.293394454E0,-4.678127448E0,4.854671194E0
1.962790875E0,4.269358396E-1,-1.024290095E0,-4.528510648E0,4.662494300E0
1.972780875E0,6.791389684E-1,-6.777218226E-1,-4.232990030E0,4.340361875E0
1.982770875E0,6.339740514E-1,-3.437886523E-1,-3.578767875E0,3.650711333E0
1.992760875E0,8.511464381E-1,3.757366692E-1,-3.156822853E0,3.291072596E0
2.002750875E0,7.671789595E-1,6.829262830E-1,-3.358888008E0,3.512418044E0
2.012740875E0,8.001081392E-1,3.161704986E-1,-3.694791836E0,3.793629335E0
2.022730875E0,1.378455362E0,-5.086143525E-1,-3.619515367E0,3.906369060E0
2.032719875E0,1.340908198E0,-3.571666431E-1,-3.158161281E0,3.449577580E0
2.042709875E0,1.219174723E0,4.082116663E-2,-2.778410937E0,3.034406154E0
2.052699875E0,1.128150532E0,3.859271235E-1,-2.108756225E0,2.422502050E0
2.062689875E0,6.791562907E-1,7.103706282E-1,-1.178692841E0,1.534664950E0
2.072679875E0,-7.642734781E-2,9.727017923E-1,-5.625044847E-1,1.126233196E0
2.082669875E0,-7.371764575E-1,1.053312458E0,-6.622878045E-1,1.446209320E0
2.092659875E0,-9.943036728E-1,8.322960381E-1,-1.474645568E0,1.963653748E0
2.102649875E0,-9.313506487E-1,3.280622369E-1,-1.794510484E0,2.048244795E0
2.112640292E0,-6.137057016E-1,-4.150103336E-1,-1.188412083E0,1.400425487E0
2.122630292E0,-3.594757086E-1,-1.418343606E0,7.210423815E-1,1.631203079E0
2.132619292E0,-5.096553031E-1,-2.360742568E0,2.916727408E0,3.786839417E0
2.142609292E0,-1.568927097E-1,-2.438420636E0,3.732268980E0,4.460979966E0
2.152599292E0,6.272815476E-1,-1.756526971E0,3.860703657E0,4.287645259E0
2.162589292E0,7.274299530E-1,-8.539525169E-1,4.175417760E0,4.323482706E0
2.172579292E0,2.596410612E-1,-5.285282879E-1,4.559326059E0,4.597195857E0
2.182569292E0,-2.871694784E-1,-5.798883299E-1,4.106669707E0,4.157339638E0
2.192559292E0,-7.685484505E-1,-1.005065327E0,3.199553136E0,3.440634142E0
2.202549292E0,-1.837908153E-1,-1.054446671E0,3.421315221E0,3.584833983E0
2.212539292E0,-2.986569548E-2,-7.344501932E-1,4.067291633E0,4.133179197E0
2.222529292E0,-1.809917166E-1,-4.760588830E-1,4.277937577E0,4.308148091E0
2.232519292E0,-3.699955805E-1,-5.771553413E-1,4.542333466E0,4.593778220E0
2.242508292E0,-6.263467971E-1,-5.235804471E-1,4.607767317E0,4.679526306E0
2.252498292E0,-6.018609969E-1,-3.351599161E-1,4.547589528E0,4.599471637E0
2.262488292E0,-3.644534067E-1,-4.200167562E-1,4.535467080E0,4.569431256E0
2.272478292E0,8.662580553E-2,-7.214873546E-1,4.531027290E0,4.588927580E0
2.282468292E0,6.768233979E-1,-8.848380947E-1,4.446063738E0,4.583504241E0
2.292458292E0,1.199531002E0,-8.650238543E-1,4.326294050E0,4.572084984E0
2.302448292E0,1.601220538E0,-8.622657227E-1,4.037372015E0,4.428067544E0
2.312438292E0,2.209577718E0,-1.992368713E0,3.611201795E0,4.678947017E0
2.322428292E0,1.890154852E0,-1.764522892E0,2.886419535E0,3.875260524E0
2.332418292E0,2.005173823E0,-8.746350688E-1,1.870142464E0,2.878044718E0
2.342408292E0,1.955471759E0,-6.393431841E-1,1.493671823E0,2.542377829E0
2.352397292E0,1.875675977E0,-8.915201466E-1,8.308144999E-1,2.236788160E0
2.362387292E0,1.807443063E0,-8.570806311E-1,-2.217316800E-1,2.012610884E0
2.372377292E0,1.549423709E0,-7.882324442E-1,-6.909315598E-1,1.870671173E0
2.382367292E0,1.108269195E0,-4.081053932E-1,-1.703721936E0,2.073036192E0
2.392357292E0,6.082832131E-1,-2.667645961E-3,-2.343827158E0,2.421475032E0
2.402347292E0,2.878935830E-1,2.222233578E-1,-2.657710372E0,2.682478398E0
2.412337292E0,2.233848341E-1,3.003057600E-1,-3.088268343E0,3.110865746E0
2.422327292E0,1.089272688E-1,3.186459173E-1,-3.672679421E0,3.688085479E0
2.432317292E0,-2.774394192E-2,4.184105992E-1,-4.344020469E0,4.364212528E0
2.442307292E0,-1.123486208E-1,5.003663432E-1,-5.001282007E0,5.027505386E0
2.452297292E0,-2.184864023E-1,6.059532438E-1,-5.427197288E0,5.465289201E0
2.462286292E0,-4.223709914E-1,8.631949914E-1,-5.795357282E0,5.874493073E0
2.472276292E0,-5.899597203E-1,1.162578719E0,-6.088081761E0,6.226104824E0
2.482266292E0,-7.780164083E-1,1.276471735E0,-6.242463457E0,6.418959389E0
2.492256292E0,-9.305368625E-1,1.309050228E0,-6.315877588E0,6.516887375E0
2.502246292E0,-9.795895200E-1,1.411100075E0,-6.263449699E0,6.494736421E0
2.512236292E0,-9.968969860E-1,1.453742942E0,-6.063010654E0,6.314053400E0
2.522226292E0,-9.317681399E-1,1.510527592E0,-5.685695091E0,5.956258401E0
2.532216292E0,-6.907516848E-1,1.516889655E0,-5.272061886E0,5.529261130E0
2.542206292E0,-5.075032353E-1,1.471353293E0,-4.918488357E0,5.158872722E0
2.552196292E0,-4.256552263E-1,1.523224820E0,-4.690789593E0,4.950242745E0
2.562185292E0,-3.211034290E-1,1.601396539E0,-4.351924151E0,4.648313899E0
2.572175292E0,-1.137445705E-1,1.671886039E0,-3.678711993E0,4.042408030E0
2.582165292E0,1.592207786E-1,1.857815803E0,-2.726517482E0,3.303139173E0
2.592155292E0,5.164067906E-1,2.034758542E0,-1.416040095E0,2.532210072E0
2.602145292E0,9.518498173E-1,1.972274318E0,1.505763280E-1,2.195121247E0
2.612135292E0,1.259339247E0,1.747194230E0,1.637159572E0,2.705349234E0
2.622125292E0,1.373700699E0,1.497810482E0,3.039356968E0,3.656252266E0
2.632115292E0,1.326387223E0,1.215413575E0,4.039313291E0,4.421830513E0
2.642105292E0,1.054178576E0,9.347408643E-1,4.593766744E0,4.804968871E0
2.652095292E0,9.165941767E-1,6.976920374E-1,4.530588164E0,4.674735091E0
2.662085292E0,9.856171954E-1,5.895391593E-1,4.147142379E0,4.303229902E0
2.672074292E0,1.293658749E0,6.598209373E-1,3.650676348E0,3.928912626E0
2.682064292E0,1.496574820E0,1.104163572E0,3.249809369E0,3.744352324E0
2.692054292E0,1.512093768E0,1.796835337E0,3.016338235E0,3.822740004E0
2.702044292E0,1.458012140E0,2.326503320E0,3.027194760E0,4.086847833E0
2.712034292E0,1.185096858E0,2.545422197E0,3.166129282E0,4.231784889E0
2.722024292E0,7.937333585E-1,2.548473566E0,3.285155788E0,4.232845227E0
2.732014292E0,3.289424986E-1,2.295136955E0,3.396993728E0,4.112836393E0
2.742004292E0,-1.444882802E-1,1.914371388E0,3.677815615E0,4.148737443E0
2.751994292E0,-5.215384533E-1,1.517748026E0,4.029789346E0,4.337598829E0
2.761984292E0,-9.107684496E-1,1.053815976E0,4.344204072E0,4.562032036E0
2.771974292E0,-1.273191447E0,4.896746363E-1,4.473442156E0,4.676802586E0
2.781963292E0,-1.612015813E0,-8.198139869E-2,4.297350333E0,4.590483179E0
2.791953292E0,-2.054910678E0,-5.155040536E-1,3.911426498E0,4.448332224E0
2.801943292E0,-2.416637857E0,-8.974639144E-1,3.399614450E0,4.266492519E0
2.811933292E0,-2.474658024E0,-1.309074494E0,2.945869346E0,4.063957993E0
2.821923292E0,-2.289258457E0,-1.629479839E0,2.748978977E0,3.931004228E0
2.831913292E0,-2.007826266E0,-1.794135677E0,2.752327092E0,3.850401741E0
2.841903292E0,-1.822173369E0,-1.905949497E0,2.915708823E0,3.931197936E0
2.851893292E0,-1.661659990E0,-1.907067485E0,3.281526421E0,4.143239791E0
2.861883292E0,-1.413913170E0,-1.855645024E0,3.797593489E0,4.456936752E0
2.871873292E0,-1.204033431E0,-1.950627049E0,3.991707015E0,4.603082367E0
2.881863292E0,-9.101479869E-1,-2.171754711E0,4.310543405E0,4.911789117E0
2.891852292E0,-1.036263292E0,-2.423553067E0,3.722866073E0,4.561489107E0
2.901842292E0,-1.032063383E0,-2.713628173E0,3.354114926E0,4.436104104E0
2.911832292E0,-1.081689434E0,-2.529478302E0,2.978207957E0,4.054384681E0
2.921822292E0,-1.344407903E0,-2.374386315E0,2.175639017E0,3.489777660E0
2.931812292E0,-1.428335182E0,-2.386089664E0,1.340465418E0,3.087136668E0
2.941802292E0,-1.431272384E0,-2.349141254E0,3.809753358E-1,2.777075346E0
2.951792292E0,-1.438857685E0,-2.178950149E0,-5.178159696E-1,2.662004614E0
2.961782292E0,-1.420116043E0,-1.939629459E0,-1.432868382E0,2.798571745E0
2.971772292E0,-1.367231193E0,-1.765307735E0,-2.345448006E0,3.238326556E0
2.981762292E0,-1.273875279E0,-1.681550902E0,-3.177239576E0,3.813819999E0
2.991751292E0,-1.118324140E0,-1.631697980E0,-3.975034264E0,4.440043309E0
3.001741292E0,-9.381994193E-1,-1.627676996E0,-4.624817213E0,4.991841825E0
3.011731292E0,-8.852208681E-1,-1.598661504E0,-5.333236041E0,5.637618403E0
3.021721292E0,-8.124558507E-1,-1.472707947E0,-6.026078471E0,6.256402716E0
3.031711292E0,-6.730887812E-1,-1.457240746E0,-6.525869814E0,6.720385102E0
3.041701292E0,-4.672955147E-1,-1.436311076E0,-7.011237245E0,7.172084934E0
3.051691292E0,-2.808126048E-1,-1.311908640E0,-7.276634762E0,7.399281955E0
3.061681292E0,-8.114773192E-2,-1.053407767E0,-7.349347812E0,7.424901760E0
3.071671292E0,-6.134116597E-2,-7.212319775E-1,-7.433033747E0,7.468194493E0
3.081661292E0,-1.687219193E-1,-5.527820268E-1,-7.426189581E0,7.448645968E0
3.091651292E0,1.538132004E-2,-5.380394420E-1,-7.019949596E0,7.040555046E0
3.101640292E0,1.278020809E-1,-5.791117465E-1,-6.296219249E0,6.324087335E0
3.111630000E0,-4.415617725E-1,-5.938726039E-1,-6.486482969E0,6.528562076E0
3.121620000E0,-7.014360827E-1,-6.004103757E-1,-5.817311237E0,5.890128626E0
3.131610000E0,-6.545952807E-1,-5.297520371E-1,-4.857931668E0,4.930378514E0
3.141600000E0,-7.258311050E-1,-4.820313022E-1,-4.231698965E0,4.320470009E0
3.151590000E0,-7.102324147E-1,-4.750890492E-1,-3.704763678E0,3.802027564E0
3.161580000E0,-4.895523564E-1,-4.102698863E-1,-2.953436812E0,3.021716713E0
3.171570000E0,-2.159240793E-1,-2.707643840E-1,-1.896306415E0,1.927670765E0
3.181560000E0,2.469552527E-1,-1.177177535E-1,-7.305558014E-1,7.801000867E-1
3.191550000E0,8.390560041E-1,-7.190160289E-2,2.404503715E-1,8.757860468E-1
3.201540000E0,1.454996292E0,-1.170647657E-1,1.344374281E0,1.984454731E0
3.211529000E0,2.197233515E0,-1.078426833E-1,2.655663262E0,3.448479741E0
3.221519000E0,2.780051081E0,4.308170021E-2,3.723740231E0,4.647233731E0
3.231509000E0,2.981296748E0,1.796153551E-1,4.510498300E0,5.409712274E0
3.241499000E0,2.869130780E0,2.312144020E-1,5.056579710E0,5.818450816E0
3.251489000E0,2.627454540E0,1.128766975E-1,5.284235789E0,5.902491540E0
3.261479000E0,2.379392409E0,-1.747628970E-1,5.358504199E0,5.865630192E0
3.271469000E0,2.116246508E0,-3.672690238E-1,5.137062541E0,5.568015568E0
3.281459000E0,1.809658134E0,-4.794207396E-1,4.839644501E0,5.189110300E0
3.291449000E0,1.556506587E0,-5.006714217E-1,4.846485744E0,5.114861551E0
3.301439000E0,1.409130879E0,-4.122054243E-1,5.114943693E0,5.321485895E0
3.311429000E0,1.396949228E0,-3.993305863E-1,5.394466329E0,5.586698403E0
3.321418000E0,1.575411513E0,-6.589752106E-1,5.519116688E0,5.777267414E0
3.331408000E0,1.923594932E0,-1.166396220E0,5.571336417E0,6.008368087E0
3.341398000E0,2.209809122E0,-1.596379043E0,5.432299569E0,6.077956976E0
3.351388000E0,2.333880460E0,-1.787564284E0,5.082015683E0,5.871053353E0
3.361378000E0,2.515606660E0,-1.880100126E0,4.567354871E0,5.542903920E0
3.371368000E0,2.845702448E0,-1.947536649E0,3.954217592E0,5.246594914E0
3.381358000E0,3.127113150E0,-1.913778626E0,3.292060765E0,4.927377534E0
3.391348000E0,3.369602446E0,-1.796558179E0,2.653329638E0,4.649946247E0
3.401338000E0,3.553246825E0,-1.746257506E0,2.123057930E0,4.492477407E0
3.411328000E0,3.618482164E0,-1.629209259E0,1.690179784E0,4.313286877E0
3.421318000E0,3.602404659E0,-1.449848404E0,1.282614235E0,4.089557311E0
3.431307000E0,3.521903118E0,-1.244616104E0,9.378150380E-1,3.851281328E0
3.441297000E0,3.395059469E0,-1.015311915E0,5.527121526E-1,3.586471498E0
3.451287000E0,3.029688597E0,-7.069869907E-1,1.220664740E-1,3.113477770E0
3.461277000E0,2.570369927E0,-3.549938909E-1,-3.666256839E-1,2.620541283E0
3.471267000E0,2.076123645E0,-5.332587585E-2,-9.504233891E-1,2.283952202E0
3.481257000E0,1.556367424E0,9.712298289E-2,-1.592602034E0,2.228922087E0
3.491247000E0,1.072382274E0,1.932926504E-1,-2.225124587E0,2.477608771E0
3.501237000E0,6.325744472E-1,2.470624761E-1,-2.934815184E0,3.012362937E0
3.511227000E0,2.345299195E-1,2.177208555E-1,-3.668670570E0,3.682601038E0
3.521217000E0,-8.663139693E-2,1.344225177E-1,-4.280420889E0,4.283407219E0
3.531207000E0,-3.774750464E-1,1.990509152E-2,-4.821042754E0,4.835838796E0
3.541196000E0,-6.737702011E-1,-5.498385385E-2,-5.223110751E0,5.266675937E0
3.551186000E0,-9.481059182E-1,-1.221430725E-1,-5.540641458E0,5.622502248E0
3.561176000E0,-1.166280225E0,-1.603049254E-1,-5.801436632E0,5.919676868E0
3.571166000E0,-1.419780267E0,-1.586120103E-1,-5.988786099E0,6.156824889E0
3.581156000E0,-1.693829178E0,-1.882011142E-1,-6.155476769E0,6.387047142E0
3.591146000E0,-1.803562851E0,-5.844408989E-2,-6.123311820E0,6.383666839E0
3.601136000E0,-1.919768076E0,1.181419690E-1,-6.079333157E0,6.376343672E0
3.611126000E0,-1.857374630E0,1.903394410E-1,-5.901318185E0,6.189638595E0
3.621116000E0,-1.779135961E0,2.827940069E-1,-5.698714501E0,5.976675011E0
3.631106000E0,-1.790105630E0,3.302356835E-1,-5.485877021E0,5.779998310E0
3.641096000E0,-1.789745149E0,4.161239724E-1,-5.162895539E0,5.480131131E0
3.651085000E0,-1.835853076E0,5.516378729E-1,-4.946619896E0,5.305064491E0
3.661075000E0,-1.761269063E0,5.195357819E-1,-4.567783472E0,4.923071398E0
3.671065000E0,-1.861546472E0,6.059197685E-1,-3.975825977E0,4.431668561E0
3.681055000E0,-1.919086436E0,9.745513397E-1,-3.329312207E0,3.964462490E0
3.691045000E0,-1.826271536E0,1.190055297E0,-2.585427677E0,3.381706020E0
3.701035000E0,-1.954913496E0,1.206913112E0,-1.713251728E0,2.865930481E0
3.711025000E0,-2.107746265E0,1.282950158E0,-9.100208831E-1,2.629960728E0
3.721015000E0,-2.080556858E0,1.533543987E0,2.045788729E-1,2.592744977E0
3.731005000E0,-1.905832553E0,1.704253886E0,1.262712652E0,2.851512278E0
3.740995000E0,-1.683670956E0,1.848624418E0,2.572674315E0,3.587591568E0
3.750985000E0,-1.354164713E0,1.997949296E0,4.071663596E0,4.733287219E0
3.760974000E0,-1.140888253E0,2.114700066E0,5.815638934E0,6.292474758E0
3.770964000E0,-8.205206229E-1,2.022842647E0,7.282069749E0,7.602215880E0
3.780954000E0,-9.214248540E-1,1.541233221E0,7.634208371E0,7.842548123E0
3.790944000E0,-9.892040236E-1,1.213450737E0,8.078928298E0,8.229220481E0
3.800934000E0,-1.096136149E0,1.457083602E0,8.099498218E0,8.302197207E0
3.810924000E0,-1.102127645E0,1.906562431E0,7.812266613E0,8.116721954E0
3.820914000E0,-7.447956719E-1,2.274032746E0,7.467120675E0,7.841162969E0
3.830904000E0,-1.302693866E-1,2.371806962E0,7.221375065E0,7.602019220E0
3.840894000E0,4.069586080E-1,2.256715924E0,6.878245833E0,7.250423974E0
3.850884000E0,8.574155304E-1,2.030292731E0,6.437211991E0,6.804039108E0
3.860874000E0,1.182163310E0,1.649636068E0,5.872548130E0,6.213342963E0
3.870864000E0,1.227366380E0,1.232687931E0,5.017788697E0,5.310758060E0
3.880853000E0,9.867563792E-1,9.329925469E-1,4.022438226E0,4.245488491E0
3.890843000E0,7.661840558E-1,7.203984569E-1,3.189512882E0,3.358422899E0
3.900833000E0,5.865170990E-1,3.955172150E-1,2.423733453E0,2.524860397E0
3.910823000E0,4.224035896E-1,-5.171321377E-2,1.880894324E0,1.928435249E0
3.920813000E0,3.086672053E-1,-4.694526257E-1,1.578422536E0,1.675433948E0
3.930803000E0,1.837749182E-1,-8.122548527E-1,1.375926442E0,1.608323580E0
3.940793000E0,2.595739827E-2,-1.058000609E0,1.352438761E0,1.717303024E0
3.950783000E0,-9.325183377E-2,-1.115552852E0,1.415450111E0,1.804619929E0
3.960773000E0,-1.368105206E-1,-1.056085938E0,1.459742770E0,1.806898885E0
3.970763000E0,-5.399216607E-2,-1.074611525E0,1.526557733E0,1.867641185E0
3.980752000E0,1.335281861E-1,-1.136850750E0,1.598127068E0,1.965774537E0
3.990742000E0,3.187114061E-1,-1.208861842E0,1.635448676E0,2.058547130E0
4.000732000E0,4.043577665E-1,-1.321851391E0,1.596088144E0,2.111467184E0
4.010722000E0,2.974599932E-1,-1.446468713E0,1.362072634E0,2.008978856E0
4.020712000E0,1.627309352E-2,-1.536925724E0,9.140221328E-1,1.788251088E0
4.030702000E0,-3.011539717E-1,-1.577658890E0,3.224113780E-1,1.638185089E0
4.040692000E0,-6.042505346E-1,-1.640726666E0,-3.191749442E-1,1.777350653E0
4.050682000E0,-8.336090304E-1,-1.744461241E0,-9.330782086E-1,2.146784568E0
4.060672000E0,-9.995614891E-1,-1.926372506E0,-1.550331928E0,2.667126410E0
4.070662000E0,-1.126219781E0,-2.098340872E0,-2.166717335E0,3.219638089E0
4.080652000E0,-1.157891371E0,-2.265692570E0,-2.789817100E0,3.775864762E0
4.090641000E0,-1.161214490E0,-2.432071583E0,-3.392331743E0,4.332586517E0
4.100631000E0,-1.144504902E0,-2.617392358E0,-3.938920106E0,4.865770836E0
4.110621750E0,-1.104252669E0,-2.794674675E0,-4.467139442E0,5.383764045E0
4.120611750E0,-1.120075673E0,-2.929693024E0,-4.880290836E0,5.801285148E0
4.130601750E0,-1.151834094E0,-2.991755955E0,-5.233074991E0,6.136969883E0
4.140591750E0,-1.165398173E0,-3.056641630E0,-5.556695573E0,6.448106439E0
4.150581750E0,-1.217709411E0,-3.125839042E0,-5.811830642E0,6.710518709E0
4.160571750E0,-1.285779918E0,-3.162567158E0,-5.967892243E0,6.875376270E0
4.170561750E0,-1.130595838E0,-3.150405534E0,-6.013040934E0,6.881857544E0
4.180551750E0,-5.179967947E-1,-3.211869711E0,-5.816892577E0,6.664883117E0
4.190541750E0,-1.356908957E0,-3.066889753E0,-5.921924357E0,6.805600838E0
4.200530750E0,-1.609300074E0,-2.640881793E0,-6.073990556E0,6.815971292E0
4.210520750E0,-1.368255333E0,-2.217366794E0,-5.977929574E0,6.521079676E0
4.220510750E0,-1.407457260E0,-2.068529428E0,-5.883505812E0,6.393386471E0
4.230500750E0,-1.532797882E0,-1.988303875E0,-5.735501674E0,6.260894592E0
4.240490750E0,-1.601667411E0,-1.771510169E0,-5.352233645E0,5.860886602E0
4.250480750E0,-1.417095518E0,-1.460545592E0,-4.709341055E0,5.130228679E0
4.260470750E0,-1.140391386E0,-1.296157849E0,-3.967222969E0,4.326589392E0
4.270460750E0,-8.331741437E-1,-1.324579994E0,-3.099850507E0,3.472429191E0
4.280450750E0,-4.691031083E-1,-1.349836458E0,-1.939908518E0,2.409431727E0
4.290440750E0,-4.901282340E-3,-1.154378364E0,-4.601992607E-1,1.242737619E0
4.300430750E0,6.758692785E-1,-8.934764788E-1,1.274318790E0,1.696758050E0
4.310420750E0,1.344407903E0,-8.691169783E-1,2.903338453E0,3.315444330E0
4.320409750E0,1.795510650E0,-1.063818442E0,4.425742909E0,4.893134831E0
4.330399750E0,1.904425859E0,-1.174685159E0,5.585338159E0,6.016870069E0
4.340389750E0,1.700154549E0,-1.148971736E0,6.150529439E0,6.483800886E0
4.350379750E0,1.423569555E0,-1.075236593E0,6.369159756E0,6.614293614E0
4.360369750E0,1.127528535E0,-1.022830922E0,6.377789077E0,6.556957923E0
4.370359750E0,9.161285922E-1,-9.515263201E-1,6.245103475E0,6.383260244E0
4.380349750E0,8.094531593E-1,-8.378554246E-1,6.256579220E0,6.364118138E0
4.390339750E0,8.780788596E-1,-6.346298897E-1,6.709385262E0,6.796295180E0
4.400329750E0,1.070259881E0,-3.334072132E-1,7.141061220E0,7.228511045E0
4.410319750E0,1.185542562E0,-4.995239787E-2,7.381596960E0,7.476361421E0
4.420309750E0,1.191044207E0,1.808194430E-1,7.380693566E0,7.478363423E0
4.430298750E0,1.063877938E0,3.293835980E-1,7.057697466E0,7.145027876E0
4.440288750E0,8.621345258E-1,4.619283920E-1,6.545506518E0,6.618180215E0
4.450278750E0,7.464912182E-1,5.709312360E-1,6.009540206E0,6.082580464E0
4.460268750E0,7.608386774E-1,6.509127773E-1,5.520915291E0,5.610977508E0
4.470258750E0,1.073631824E0,6.412169243E-1,4.988311713E0,5.142674225E0
4.480248750E0,1.596360917E0,5.747849531E-1,4.464853181E0,4.776364710E0
4.490238750E0,2.188867757E0,5.874805740E-1,4.059414849E0,4.649206857E0
4.500228750E0,2.737320798E0,5.771801189E-1,3.663291131E0,4.609312742E0
4.510218750E0,3.176601352E0,5.408099990E-1,3.193700073E0,4.536848219E0
4.520208750E0,3.449582123E0,4.560402824E-1,2.682585597E0,4.393615260E0
4.530198750E0,3.474529561E0,3.483059187E-1,2.016592412E0,4.032408417E0
4.540187750E0,3.223544846E0,1.597098251E-1,1.190028253E0,3.439900558E0
4.550177750E0,2.758754936E0,2.869959623E-3,2.329542410E-1,2.768574491E0
4.560167750E0,2.129621722E0,-1.466696571E-1,-7.787204862E-1,2.272268968E0
4.570157750E0,1.476190403E0,-2.382133730E-1,-1.770266173E0,2.317266933E0
4.580147750E0,9.280118886E-1,-3.966194151E-1,-2.731173620E0,2.911670031E0
4.590137750E0,5.075668238E-1,-6.492583077E-1,-3.594747146E0,3.688003182E0
4.600127750E0,1.322451608E-1,-8.819174105E-1,-4.385251526E0,4.475008161E0
4.610117750E0,-1.756835411E-1,-1.025754530E0,-5.081146787E0,5.186626045E0
4.620107750E0,-4.421912983E-1,-1.075521937E0,-5.688159108E0,5.805810418E0
4.630097750E0,-6.632628277E-1,-1.110584765E0,-6.152159058E0,6.286682526E0
4.640087750E0,-8.238108511E-1,-1.148294629E0,-6.470157543E0,6.622702130E0
4.650076750E0,-9.671147047E-1,-1.149205332E0,-6.700382888E0,6.866666921E0
4.660066750E0,-1.082777600E0,-1.124598787E0,-6.868408477E0,7.043590333E0
4.670056750E0,-1.183354680E0,-1.110114942E0,-6.923506206E0,7.111091454E0
4.680046750E0,-1.257494158E0,-1.098980089E0,-6.837472613E0,7.038471463E0
4.690036750E0,-1.276333741E0,-1.046806553E0,-6.631312069E0,6.833676282E0
4.700026750E0,-1.279548832E0,-1.003769584E0,-6.319626823E0,6.525525402E0
4.710016750E0,-1.241777574E0,-1.003315548E0,-5.881799009E0,6.094605255E0
4.720006750E0,-1.225517636E0,-9.389824346E-1,-5.405787708E0,5.621932251E0
4.729996750E0,-1.223454446E0,-8.258162999E-1,-4.916797927E0,5.133586972E0
4.739986750E0,-1.187435305E0,-6.478887436E-1,-4.326231485E0,4.532774127E0
4.749976750E0,-1.115928097E0,-4.466983321E-1,-3.747707384E0,3.935752222E0
4.759965750E0,-1.015249276E0,-2.509440771E-1,-3.105334611E0,3.276706741E0
4.769955750E0,-9.429193649E-1,-7.950371414E-2,-2.473606110E0,2.648423107E0
4.779945750E0,-1.033340854E0,2.044771314E-2,-1.940227191E0,2.198338687E0
4.789935750E0,-1.251036055E0,1.081875229E-1,-1.623476502E0,2.052430682E0
4.799925750E0,-1.497066717E0,2.878125259E-1,-1.429908521E0,2.090139513E0
4.809915750E0,-1.615740928E0,6.957309544E-1,-1.254304941E0,2.160541875E0
4.819905750E0,-1.506806131E0,1.230540541E0,-8.231365210E-1,2.112403482E0
4.829895750E0,-1.130053582E0,1.693151047E0,1.483555555E-2,2.035682111E0
4.839885750E0,-5.376011201E-1,1.959991657E0,1.195271451E0,2.357807478E0
4.849875750E0,2.150334752E-1,2.149923839E0,2.819890500E0,3.552491286E0
4.859865750E0,9.485416089E-1,2.249968091E0,4.805312575E0,5.390094297E0
4.869854750E0,1.224859240E0,2.226896732E0,6.454482912E0,6.936836373E0
4.879844750E0,9.634831452E-1,2.264086778E0,7.389816976E0,7.788695889E0
4.889834750E0,4.881676626E-1,2.293081220E0,7.785145472E0,8.130499319E0
4.899824750E0,-7.245209998E-2,2.188799637E0,7.722544012E0,8.027065415E0
4.909814750E0,-6.380237599E-1,2.078286092E0,7.243677515E0,7.562883798E0
4.919804750E0,-1.036352389E0,1.972779810E0,6.667232684E0,7.029785069E0
4.929794750E0,-1.217329049E0,1.823590003E0,6.152839674E0,6.531830262E0
4.939784750E0,-1.242914418E0,1.684516171E0,5.671228495E0,6.045267870E0
4.949774750E0,-1.193532197E0,1.470070414E0,5.253446106E0,5.584292445E0
4.959764750E0,-1.129116858E0,1.172465118E0,4.867676638E0,5.132626538E0
4.969754750E0,-1.121671306E0,8.578973410E-1,4.325078414E0,4.549773363E0
4.979744750E0,-1.179748556E0,5.402099285E-1,3.639294743E0,3.863689901E0
4.989733750E0,-1.227686076E0,2.358654235E-1,2.981777097E0,3.233239901E0
4.999723750E0,-1.273108709E0,-8.556523025E-2,2.359238665E0,2.682188336E0
5.009713750E0,-1.297571705E0,-4.048752451E-1,1.816814688E0,2.269015625E0
5.019703750E0,-1.341285928E0,-6.688352242E-1,1.451857215E0,2.086690650E0
5.029693750E0,-1.310321705E0,-8.035527340E-1,1.147381001E0,1.918104045E0
5.039683750E0,-1.243028878E0,-9.028761703E-1,9.290950853E-1,1.795417458E0
5.049673750E0,-1.091880692E0,-1.000457136E0,8.445928788E-1,1.704832853E0
5.059663750E0,-9.103304932E-1,-1.123910862E0,9.198453748E-1,1.714057393E0
5.069653750E0,-7.535504886E-1,-1.304976181E0,1.062498726E0,1.843828819E0
5.079643750E0,-7.326503471E-1,-1.518024307E0,1.123709133E0,2.025807628E0
5.089633750E0,-7.835918015E-1,-1.672120951E0,1.062847220E0,2.130645160E0
5.099622750E0,-9.084396498E-1,-1.783641679E0,8.340538573E-1,2.168475518E0
5.109612667E0,-1.052962429E0,-1.879626355E0,4.993177181E-1,2.211570323E0
5.119602667E0,-1.179297662E0,-1.933174426E0,6.319495261E-2,2.265369713E0
5.129592667E0,-1.305151743E0,-1.950584802E0,-4.778753936E-1,2.395113157E0
5.139582667E0,-1.416521906E0,-1.960319247E0,-1.062339681E0,2.641581242E0
5.149572667E0,-1.490535084E0,-1.957473553E0,-1.718092053E0,3.000872848E0
5.159562667E0,-1.582267665E0,-1.904188754E0,-2.368480189E0,3.426252206E0
5.169552667E0,-1.631742711E0,-1.884226068E0,-2.979423008E0,3.884566077E0
5.179542667E0,-1.610531644E0,-1.833721912E0,-3.554242314E0,4.311494712E0
5.189532667E0,-1.510302328E0,-1.782394468E0,-4.020441987E0,4.649935153E0
5.199522667E0,-1.337671618E0,-1.708879472E0,-4.376505845E0,4.885021783E0
5.209511667E0,-1.194955044E0,-1.659816070E0,-4.683268905E0,5.110373233E0
5.219501667E0,-1.096613648E0,-1.600870874E0,-4.873974089E0,5.246043506E0
5.229491667E0,-9.959610660E-1,-1.533275892E0,-4.945462732E0,5.272615579E0
5.239481667E0,-9.224359837E-1,-1.405537326E0,-4.978666731E0,5.254859250E0
5.249471667E0,-8.823220378E-1,-1.320757085E0,-5.014534721E0,5.260080791E0
5.259461667E0,-8.570671825E-1,-1.271147553E0,-4.968822944E0,5.199959779E0
5.269451667E0,-8.491113147E-1,-1.192933442E0,-4.843375610E0,5.059878212E0
5.279441667E0,-9.193433914E-1,-1.086337239E0,-4.642605613E0,4.855832343E0
5.289431667E0,-1.001762527E0,-9.560104036E-1,-4.444683795E0,4.655394515E0
5.299421667E0,-1.094958228E0,-8.316214156E-1,-4.144369045E0,4.366500026E0
5.309411667E0,-1.135428854E0,-7.399449679E-1,-3.739171618E0,3.977200225E0
5.319400667E0,-1.166185647E0,-6.572597837E-1,-3.246444882E0,3.511607005E0
5.329390667E0,-1.169174743E0,-5.925322759E-1,-2.790275522E0,3.082807416E0
5.339380667E0,-1.212276616E0,-4.820538139E-1,-2.359156219E0,2.695850244E0
5.349370667E0,-1.234339038E0,-2.941535389E-1,-2.006886619E0,2.374386882E0
5.359360667E0,-1.207310138E0,-1.749913770E-1,-1.625160500E0,2.032084251E0
5.369350667E0,-1.076755553E0,-1.232633990E-1,-1.226542361E0,1.636765881E0
5.379340667E0,-8.276119798E-1,-7.725458264E-2,-7.642006803E-1,1.129120250E0
5.389330667E0,-4.047717494E-1,2.211709321E-3,-2.264287484E-1,4.638049578E-1
5.399320667E0,2.119527966E-1,9.622879744E-2,4.161790824E-1,4.768532249E-1
5.409310667E0,9.063228115E-1,1.892737859E-1,1.165615543E0,1.488591683E0
5.419300667E0,1.577191551E0,2.922955862E-1,1.987063388E0,2.553701394E0
5.429290667E0,2.054707195E0,2.821391188E-1,2.754481207E0,3.447983593E0
5.439279667E0,2.279520796E0,1.626043430E-1,3.354784432E0,4.059215912E0
5.449269667E0,2.230416171E0,3.792942613E-3,3.937174712E0,4.525054188E0
5.459259667E0,1.996270560E0,-2.479922564E-1,4.459925147E0,4.892599373E0
5.469249667E0,1.532330397E0,-4.807231338E-1,4.679478155E0,4.947387894E0
5.479239667E0,9.807914883E-1,-6.001390649E-1,4.785855380E0,4.922045363E0
5.489229667E0,4.594321060E-1,-5.668068659E-1,4.760665575E0,4.816252132E0
5.499219667E0,1.143839635E-1,-4.637059821E-1,4.820278523E0,4.843881911E0
5.509209667E0,2.450860441E-3,-3.414291546E-1,5.050071175E0,5.061600413E0
5.519199667E0,3.970888004E-2,-3.568704817E-1,5.286606835E0,5.298787141E0
5.529189667E0,1.449156386E-1,-4.507950376E-1,5.433411709E0,5.454005822E0
5.539179667E0,1.706194139E-1,-5.120397976E-1,5.463391553E0,5.489985701E0
5.549169667E0,1.549946304E-1,-5.636803597E-1,5.325148757E0,5.357141791E0
5.559158667E0,1.862053134E-1,-6.406934524E-1,4.981298563E0,5.025783112E0
5.569148667E0,3.680224375E-1,-6.854573965E-1,4.506678314E0,4.573340331E0
5.579138667E0,6.562996709E-1,-6.541560817E-1,4.043130353E0,4.147957629E0
5.589128667E0,1.154029139E0,-6.489051358E-1,3.590966921E0,3.827258099E0
5.599118667E0,1.681739036E0,-6.521088253E-1,3.129336846E0,3.611958085E0
5.609108667E0,2.072542518E0,-6.480071497E-1,2.646931030E0,3.423680714E0
5.619098667E0,2.274268535E0,-6.042593054E-1,2.173053963E0,3.203059506E0
5.629088667E0,2.264441704E0,-5.304178888E-1,1.696187798E0,2.878557350E0
5.639078667E0,2.140188371E0,-4.791233356E-1,1.158582512E0,2.480378776E0
5.649068667E0,1.865587337E0,-4.563367362E-1,5.626699609E-1,2.001313772E0
5.659058667E0,1.483556725E0,-4.533198653E-1,-1.288626927E-1,1.556613327E0
5.669047667E0,1.028899017E0,-4.806352794E-1,-9.014307386E-1,1.449903733E0
5.679037667E0,5.442543013E-1,-5.086364257E-1,-1.686465048E0,1.843661606E0
5.689027667E0,7.526302099E-2,-5.074567500E-1,-2.452628639E0,2.505706311E0
5.699017667E0,-2.712001477E-1,-5.216014570E-1,-3.179833401E0,3.233722013E0
5.709007667E0,-5.269418652E-1,-5.805488460E-1,-3.828962047E0,3.908408250E0
5.718997667E0,-7.502568251E-1,-6.474944951E-1,-4.372338535E0,4.483244214E0
5.728987667E0,-8.969425620E-1,-6.669322479E-1,-4.798775387E0,4.927225365E0
5.738977667E0,-1.008660634E0,-6.653578851E-1,-5.107285010E0,5.248281392E0
5.748967667E0,-1.078100997E0,-6.283607975E-1,-5.340728663E0,5.484571242E0
5.758957667E0,-1.143640683E0,-6.183948031E-1,-5.494972365E0,5.646684641E0
5.768947667E0,-1.250766060E0,-5.432215369E-1,-5.583949445E0,5.748042866E0
5.778936667E0,-1.274066337E0,-3.822444740E-1,-5.589083301E0,5.745189989E0
5.788926667E0,-1.310890055E0,-2.908641878E-1,-5.502324069E0,5.663797743E0
5.798916667E0,-1.352701155E0,-2.643646064E-1,-5.384503843E0,5.558108554E0
5.808906667E0,-1.319645237E0,-2.629715073E-1,-5.227127203E0,5.397543549E0
5.818896667E0,-1.274367761E0,-1.803351474E-1,-4.955839201E0,5.120241805E0
5.828886667E0,-1.215752201E0,-2.799909979E-2,-4.629353483E0,4.786413170E0
5.838876667E0,-1.134432342E0,1.178871766E-1,-4.284443774E0,4.433654539E0
5.848866667E0,-1.056919312E0,2.708316270E-1,-3.865697764E0,4.016720976E0
5.858856667E0,-9.792663883E-1,4.129408944E-1,-3.392862085E0,3.555417833E0
5.868846667E0,-9.087872668E-1,5.543353397E-1,-2.931719084E0,3.118999640E0
5.878836667E0,-9.113881083E-1,7.085416192E-1,-2.506504884E0,2.759569938E0
5.888826667E0,-8.979700640E-1,7.991380861E-1,-2.075724719E0,2.398667344E0
5.898815667E0,-8.806089498E-1,8.543536359E-1,-1.589033478E0,2.007590509E0
5.908805667E0,-9.129335274E-1,8.847562337E-1,-1.207370510E0,1.753278291E0
5.918795667E0,-1.038502922E0,9.767648032E-1,-8.113210523E-1,1.640365706E0
5.928785667E0,-1.106459409E0,1.193038692E0,-3.708292472E-1,1.668864307E0
5.938775667E0,-1.044642791E0,1.403976851E0,6.261256993E-2,1.751099624E0
5.948765667E0,-8.165645429E-1,1.540147832E0,8.254455864E-1,1.928780292E0
5.958755667E0,-3.512745501E-1,1.632915955E0,1.782645898E0,2.442874275E0
5.968745667E0,2.372861508E-1,1.723338906E0,2.899585710E0,3.381390098E0
5.978735667E0,8.426160814E-1,1.890904611E0,4.237532147E0,4.716163781E0
5.988725667E0,1.418326064E0,2.128835710E0,5.618152733E0,6.173105413E0
5.998715667E0,1.802827563E0,2.190138503E0,6.617827805E0,7.200176299E0
6.008705667E0,2.036735339E0,2.069697848E0,7.051260851E0,7.625760265E0
6.018694667E0,2.010419214E0,1.967947817E0,7.048314439E0,7.589027636E0
6.028684667E0,1.769937268E0,1.896775654E0,6.760992787E0,7.241647553E0
6.038674667E0,1.330567105E0,1.807533402E0,6.223008016E0,6.615392248E0
6.048664667E0,9.008692597E-1,1.722045502E0,5.706203615E0,6.028081439E0
6.058654667E0,5.801750627E-1,1.485043672E0,5.190633561E0,5.429975559E0
6.068644667E0,2.877015019E-1,1.157934933E0,4.632871168E0,4.784044390E0
6.078634667E0,1.102691317E-1,8.511999401E-1,4.048672344E0,4.138652966E0
6.088624667E0,1.249696165E-2,5.711405298E-1,3.347698191E0,3.396091998E0
6.098614667E0,-3.873297974E-2,2.983556405E-1,2.735935593E0,2.752428001E0
6.108604500E0,-9.213603884E-2,7.901634872E-3,2.233031192E0,2.234945143E0
6.118594500E0,-1.275157135E-1,-2.230283001E-1,1.943797501E0,1.960701559E0
6.128583500E0,-1.644315248E-1,-4.432673322E-1,1.873982331E0,1.932701071E0
6.138573500E0,-2.228056674E-1,-7.228618889E-1,1.975104663E0,2.114996479E0
6.148563500E0,-2.402960050E-1,-1.083902459E0,2.074583927E0,2.352973689E0
6.158553500E0,-3.456221929E-1,-1.328427024E0,2.119361320E0,2.525047616E0
6.168543500E0,-5.490982810E-1,-1.337469158E0,2.068710399E0,2.523865168E0
6.178533500E0,-7.329535984E-1,-1.250822339E0,1.975501104E0,2.450384075E0
6.188523500E0,-7.542276692E-1,-1.121391005E0,1.860660034E0,2.299659307E0
6.198513500E0,-6.947970079E-1,-1.113042496E0,1.715035129E0,2.159386944E0
6.208503500E0,-6.535308681E-1,-1.142947496E0,1.444476274E0,1.954467519E0
6.218493500E0,-7.286023928E-1,-1.158289420E0,9.790145195E-1,1.682547253E0
6.228483500E0,-8.563371576E-1,-1.130451119E0,2.984524119E-1,1.449243562E0
6.238473500E0,-1.027715394E0,-1.119853479E0,-4.524733347E-1,1.585876056E0
6.248462500E0,-1.133214075E0,-1.130626389E0,-1.226106743E0,2.016389823E0
6.258452500E0,-1.200303419E0,-1.188400973E0,-2.022856534E0,2.635331806E0
6.268442500E0,-1.312196469E0,-1.246319691E0,-2.727180557E0,3.273024004E0
6.278432500E0,-1.367537441E0,-1.273333242E0,-3.377600268E0,3.860015514E0
6.288422500E0,-1.346952903E0,-1.307968932E0,-3.976731126E0,4.397664755E0
6.298412500E0,-1.295915774E0,-1.357537533E0,-4.443195094E0,4.823306800E0
6.308402500E0,-1.246225989E0,-1.422518810E0,-4.817973551E0,5.175858201E0
6.318392500E0,-1.183925076E0,-1.364998288E0,-5.118923308E0,5.428468914E0
6.328382500E0,-1.081143888E0,-1.273868555E0,-5.288022446E0,5.545700550E0
6.338372500E0,-9.789288577E-1,-1.241672908E0,-5.377589511E0,5.605222767E0
6.348362500E0,-9.211664070E-1,-1.219596746E0,-5.374853598E0,5.587934768E0
6.358352500E0,-8.868289255E-1,-1.159032163E0,-5.312169108E0,5.508989175E0
6.368341500E0,-9.067025882E-1,-1.016268300E0,-5.292815409E0,5.465236115E0
6.378331500E0,-9.630321787E-1,-8.925356618E-1,-5.220901673E0,5.383480766E0
6.388321500E0,-1.095883403E0,-8.130497816E-1,-5.102461642E0,5.281772921E0
6.398311500E0,-1.230687013E0,-7.531892037E-1,-4.940872668E0,5.147242682E0
6.408301500E0,-1.398633373E0,-6.681470069E-1,-4.762611528E0,5.008499206E0
6.418291500E0,-1.520477799E0,-6.024947619E-1,-4.522538302E0,4.809179282E0
6.428281500E0,-1.578003437E0,-4.712861663E-1,-4.105373379E0,4.423380617E0
6.438271500E0,-1.564485990E0,-2.355059659E-1,-3.613745334E0,3.944899848E0
6.448261500E0,-1.466510922E0,-4.986359328E-2,-3.025211969E0,3.362298041E0
6.458251500E0,-1.188987741E0,3.007310718E-2,-2.265117204E0,2.558388592E0
6.468241500E0,-8.167696340E-1,5.782896280E-2,-1.528046435E0,1.733603972E0
6.478231500E0,-3.072027701E-1,6.491841942E-2,-6.101499367E-1,6.862003267E-1
6.488220500E0,3.833645082E-1,1.602078617E-1,5.490728456E-1,6.885607415E-1
6.498210500E0,1.220269322E0,3.771857554E-1,2.115936021E0,2.471540321E0
6.508200500E0,1.969998436E0,5.416343102E-1,3.645094596E0,4.178633291E0
6.518190500E0,2.343807570E0,5.648451251E-1,4.835427489E0,5.403132697E0
6.528180500E0,2.460774395E0,4.462305549E-1,5.687139938E0,6.212736354E0
6.538170500E0,2.349615902E0,6.038653493E-2,6.157656611E0,6.590984475E0
6.548160500E0,1.885695473E0,-4.326579979E-1,6.322438164E0,6.611827637E0
6.558150500E0,1.219355402E0,-7.160422812E-1,6.135882164E0,6.296712958E0
6.568140500E0,5.387335065E-1,-7.616096328E-1,5.932355205E0,6.005257805E0
6.578130500E0,-7.335332036E-2,-7.245615283E-1,5.867687339E0,5.912708756E0
6.588120500E0,-5.306203486E-1,-6.591908267E-1,5.883803435E0,5.944344654E0
6.598110500E0,-6.998149422E-1,-6.970970102E-1,5.909406638E0,5.991391492E0
6.608099500E0,-7.221532063E-1,-9.165346813E-1,5.843966355E0,5.959319074E0
6.618089500E0,-6.890544574E-1,-1.176279987E0,5.618296575E0,5.781322259E0
6.628079500E0,-6.466090804E-1,-1.313818048E0,5.215243907E0,5.416917036E0
6.638069500E0,-4.590094985E-1,-1.358059836E0,4.729149667E0,4.941646771E0
6.648059500E0,-1.348843016E-1,-1.378512519E0,4.194555112E0,4.417327600E0
6.658049500E0,3.730397871E-1,-1.380066270E0,3.684586691E0,3.952204533E0
6.668039500E0,1.091085324E0,-1.345628801E0,3.242854691E0,3.676586814E0
6.678029500E0,1.775071269E0,-1.260508690E0,2.909109655E0,3.633549113E0
6.688019500E0,2.393545448E0,-1.100461773E0,2.549252123E0,3.665891749E0
6.698009500E0,2.863597560E0,-9.690853626E-1,2.164789508E0,3.718283345E0
6.707999500E0,3.149308304E0,-8.408589931E-1,1.775053289E0,3.711603537E0
6.717989500E0,3.196696186E0,-7.508662511E-1,1.201180648E0,3.496498474E0
6.727978500E0,3.002400811E0,-7.002406195E-1,4.775660759E-1,3.119746290E0
6.737968500E0,2.576280878E0,-6.822493216E-1,-2.992955804E-1,2.681839880E0
6.747958500E0,2.024048781E0,-7.201746547E-1,-1.152031876E0,2.437745361E0
6.757948500E0,1.397052870E0,-8.215127492E-1,-2.057884279E0,2.619451780E0
6.767938500E0,7.552250580E-1,-8.898210919E-1,-2.929308277E0,3.153251250E0
6.777928500E0,2.363453338E-1,-9.367242399E-1,-3.731159179E0,3.854200337E0
6.787918500E0,-1.216729563E-1,-1.029448509E0,-4.418724496E0,4.538688656E0
6.797908500E0,-3.904285294E-1,-1.133852883E0,-5.000213136E0,5.142002353E0
6.807898500E0,-6.054572538E-1,-1.177916038E0,-5.508274196E0,5.665258096E0
6.817888500E0,-7.996989803E-1,-1.132335823E0,-5.875706795E0,6.037021883E0
6.827878500E0,-9.220832504E-1,-1.074501013E0,-6.129004669E0,6.290428299E0
6.837868500E0,-9.957105128E-1,-1.013617757E0,-6.245892264E0,6.405468801E0
6.847857500E0,-9.690507178E-1,-9.110160792E-1,-6.266862134E0,6.406447580E0
6.857847500E0,-9.274637852E-1,-7.833582053E-1,-6.171496970E0,6.289770584E0
6.867837500E0,-9.102163994E-1,-6.352216280E-1,-6.036070778E0,6.137275523E0
6.877827500E0,-9.661066447E-1,-5.103096065E-1,-5.886533500E0,5.987073959E0
6.887817500E0,-1.008119401E0,-3.363558179E-1,-5.669756750E0,5.768499074E0
6.897807500E0,-9.089348359E-1,-1.437175441E-1,-5.327508109E0,5.406399903E0
6.907797500E0,-7.580991107E-1,4.851990312E-2,-4.848345158E0,4.907496227E0
6.917787500E0,-5.793652233E-1,2.547497374E-1,-4.311153855E0,4.357362625E0
6.927777500E0,-4.607754307E-1,4.333424145E-1,-3.768269117E0,3.820988326E0
6.937767500E0,-3.665459425E-1,6.809053391E-1,-3.239367412E0,3.330388752E0
6.947757500E0,-3.792854174E-1,9.914383909E-1,-2.717332091E0,2.917310612E0
6.957747500E0,-4.173746918E-1,1.301443439E0,-2.205727619E0,2.594839299E0
6.967737500E0,-4.237928881E-1,1.505750124E0,-1.699117838E0,2.309520573E0
6.977726500E0,-4.647345804E-1,1.598583151E0,-1.247438555E0,2.080276249E0
6.987716500E0,-3.437135155E-1,1.811667238E0,-6.425376642E-1,1.952724202E0
6.997706500E0,-1.251760963E-1,2.039413071E0,6.849369943E-2,2.044398718E0
7.007696500E0,1.446321948E-1,2.237629881E0,9.627651072E-1,2.440250522E0
7.017686500E0,3.293240295E-1,2.397885690E0,1.885448720E0,3.068098267E0
7.027676500E0,4.667356438E-1,2.531112306E0,2.953702860E0,3.917745813E0
7.037666500E0,6.364410648E-1,2.548043504E0,4.096959236E0,4.866483115E0
7.047656500E0,7.844715151E-1,2.470024105E0,5.239767129E0,5.845645748E0
7.057646500E0,8.806696878E-1,2.338651203E0,6.351383051E0,6.825315759E0
7.067636500E0,8.853949689E-1,2.101793361E0,7.127860546E0,7.483839625E0
7.077626500E0,7.846660081E-1,1.817083952E0,7.376591159E0,7.637512158E0
7.087616500E0,5.956885298E-1,1.485082556E0,7.280903814E0,7.454654611E0
7.097605500E0,3.952487547E-1,1.195032300E0,6.785344101E0,6.901102691E0
7.107595500E0,9.084541216E-2,9.447241080E-1,6.087661346E0,6.161199331E0
7.117585042E0,-1.579785741E-1,8.372014135E-1,5.484459071E0,5.550239161E0
7.127575042E0,-2.865157231E-1,7.766302527E-1,5.110726681E0,5.177332616E0
7.137565042E0,-3.998515001E-1,6.437806360E-1,4.627925593E0,4.689566081E0
7.147555042E0,-5.902907092E-1,3.894179843E-1,4.057042633E0,4.118213741E0
7.157545042E0,-7.488518853E-1,1.197502457E-1,3.367221460E0,3.451564808E0
7.167535042E0,-9.062416814E-1,-6.810675994E-2,2.534979070E0,2.692959599E0
7.177525042E0,-1.025122008E0,-2.018740971E-1,1.827606309E0,2.105177689E0
7.187515042E0,-1.055964974E0,-3.221196020E-1,1.231172186E0,1.653665025E0
7.197505042E0,-1.019352560E0,-5.431703737E-1,7.730896175E-1,1.389885338E0
7.207495042E0,-1.019651791E0,-7.495822026E-1,5.075675547E-1,1.363520472E0
7.217485042E0,-1.010919998E0,-8.376007783E-1,4.177397043E-1,1.377694003E0
7.227474042E0,-9.884316064E-1,-8.660297947E-1,5.164173156E-1,1.411981406E0
7.237464042E0,-9.248557808E-1,-9.398422676E-1,6.995983028E-1,1.492681978E0
7.247454042E0,-8.446110052E-1,-1.034972958E0,8.772753060E-1,1.598170434E0
7.257444042E0,-7.648643392E-1,-1.112550599E0,9.369765472E-1,1.643384113E0
7.267434042E0,-6.900067496E-1,-1.155814440E0,9.602584058E-1,1.653515207E0
7.277424042E0,-6.207433373E-1,-1.192949668E0,9.039134663E-1,1.620342790E0
7.287414042E0,-5.756239555E-1,-1.227841174E0,7.783374935E-1,1.563568399E0
7.297404042E0,-5.768149602E-1,-1.224085945E0,5.383817965E-1,1.456350528E0
7.307394042E0,-6.429923583E-1,-1.233308466E0,1.533882540E-1,1.399291572E0
7.317384042E0,-7.907821957E-1,-1.269977379E0,-3.626934314E-1,1.539391292E0
7.327374042E0,-9.191008050E-1,-1.302847063E0,-9.455310237E-1,1.853695141E0
7.337364042E0,-1.047600020E0,-1.336806522E0,-1.555434208E0,2.303018249E0
7.347354042E0,-1.174246180E0,-1.365607860E0,-2.211108811E0,2.851796117E0
7.357343042E0,-1.262566910E0,-1.387881366E0,-2.857203922E0,3.418172632E0
7.367333042E0,-1.317720187E0,-1.428047060E0,-3.419156429E0,3.932726228E0
7.377323042E0,-1.299060260E0,-1.458107303E0,-3.905234882E0,4.366290640E0
7.387313042E0,-1.251922639E0,-1.492291003E0,-4.302292984E0,4.722707661E0
7.397303042E0,-1.198923476E0,-1.505309244E0,-4.582754098E0,4.970413317E0
7.407293042E0,-1.107743749E0,-1.473724339E0,-4.737095448E0,5.083210888E0
7.417283042E0,-1.061749844E0,-1.384587045E0,-4.850603938E0,5.154876582E0
7.427273042E0,-1.016106040E0,-1.318035206E0,-4.932518751E0,5.205711240E0
7.437263042E0,-1.004010928E0,-1.285060710E0,-4.968653959E0,5.229430288E0
7.447253042E0,-9.729625051E-1,-1.214721922E0,-4.930359374E0,5.170169141E0
7.457243042E0,-9.220097217E-1,-1.129907767E0,-4.848420587E0,5.063000659E0
7.467233042E0,-9.280057490E-1,-1.047759357E0,-4.734392281E0,4.936948917E0
7.477222042E0,-9.580994676E-1,-9.635536042E-1,-4.497361946E0,4.698154383E0
7.487212042E0,-9.466121739E-1,-8.145694730E-1,-4.242806920E0,4.422782902E0
7.497202042E0,-9.606858373E-1,-6.873700207E-1,-3.970105646E0,4.142117051E0
7.507192042E0,-1.019136798E0,-5.741708493E-1,-3.668602157E0,3.850578368E0
7.517182042E0,-1.091439958E0,-4.323641753E-1,-3.389860709E0,3.587385621E0
7.527172042E0,-1.132212593E0,-2.646324089E-1,-3.005105149E0,3.222203069E0
7.537162042E0,-1.030418562E0,-6.531983078E-2,-2.448098801E0,2.656918672E0
7.547152042E0,-8.241733785E-1,1.088953283E-1,-1.782215543E0,1.966573719E0
7.557142042E0,-5.452299093E-1,2.188501722E-1,-1.038483042E0,1.193154675E0
7.567132042E0,-1.697356072E-1,3.724679294E-1,-7.257622540E-2,4.157040333E-1
7.577122042E0,3.782522875E-1,5.494991076E-1,1.107466738E0,1.292867602E0
7.587112042E0,9.534490308E-1,6.247358161E-1,2.528914338E0,2.773944416E0
7.597102042E0,1.484642114E0,5.624911822E-1,3.965355953E0,4.271370550E0
7.607091042E0,1.779511499E0,4.135216691E-1,5.037584445E0,5.358630272E0
7.617081042E0,1.644880235E0,1.747396544E-1,5.496557545E0,5.740061827E0
7.627071042E0,1.222356924E0,-3.018332720E-3,5.496158180E0,5.630445835E0
7.637061042E0,7.117238201E-1,-1.598770554E-1,5.237186753E0,5.287743995E0
7.647051042E0,2.725933930E-1,-3.383305688E-1,4.819156442E0,4.838702672E0
7.657041042E0,-1.687915742E-2,-4.282475893E-1,4.562136231E0,4.582223030E0
7.667031042E0,-9.229932234E-2,-3.415092614E-1,4.603247420E0,4.616820827E0
7.677021042E0,2.615971193E-2,-1.930978650E-1,4.905522741E0,4.909391457E0
7.687011042E0,3.856457993E-1,-1.234563571E-1,5.296965762E0,5.312420394E0
7.697001042E0,8.189440674E-1,-1.610792430E-1,5.740461867E0,5.800820490E0
7.706991042E0,1.001803458E0,-2.919415373E-1,5.903776354E0,5.995282751E0
7.716981042E0,8.181489922E-1,-4.577752975E-1,5.670312236E0,5.747292132E0
7.726970042E0,5.028624465E-1,-5.580964150E-1,5.125214328E0,5.179977235E0
7.736960042E0,3.546875699E-1,-5.957124303E-1,4.368044339E0,4.422724039E0
7.746950042E0,4.048025934E-1,-6.500919744E-1,3.703565583E0,3.781915222E0
7.756940042E0,6.697241472E-1,-7.056158186E-1,3.087257359E0,3.236909347E0
7.766930042E0,1.026825740E0,-7.603089197E-1,2.674583098E0,2.964091007E0
7.776920042E0,1.451852391E0,-7.169556163E-1,2.363897726E0,2.865294606E0
7.786910042E0,1.895677547E0,-6.645506769E-1,2.134466432E0,2.931069415E0
7.796900042E0,2.261660914E0,-6.768593583E-1,1.918374977E0,3.041942017E0
7.806890042E0,2.420491611E0,-6.692009676E-1,1.491161613E0,2.920645910E0
7.816880042E0,2.373019090E0,-6.762807763E-1,9.410503024E-1,2.640861784E0
7.826870042E0,2.076713337E0,-7.303207433E-1,2.904095668E-1,2.220460400E0
7.836860042E0,1.602715671E0,-8.108775410E-1,-4.703856951E-1,1.856739780E0
7.846850042E0,1.032121709E0,-9.214235383E-1,-1.241225889E0,1.858746424E0
7.856840042E0,4.634811567E-1,-1.003329289E0,-2.002189550E0,2.286973424E0
7.866829042E0,4.447333753E-2,-1.061076975E0,-2.744636250E0,2.942939070E0
7.876819042E0,-2.986727057E-1,-1.176042883E0,-3.432809093E0,3.640942257E0
7.886809042E0,-5.695753764E-1,-1.260082867E0,-4.075354943E0,4.303573266E0
7.896799042E0,-8.091087583E-1,-1.303096155E0,-4.667897744E0,4.913449493E0
7.906789042E0,-1.009583032E0,-1.322431143E0,-5.163817061E0,5.425227061E0
7.916779042E0,-1.171789033E0,-1.336253668E0,-5.601019222E0,5.876230061E0
7.926769042E0,-1.282177448E0,-1.364076767E0,-5.970500101E0,6.257120416E0
7.936759042E0,-1.360826007E0,-1.393347928E0,-6.331813005E0,6.624584651E0
7.946749042E0,-1.484135307E0,-1.341115920E0,-6.620256738E0,6.915854886E0
7.956739042E0,-1.580030959E0,-1.220609483E0,-6.845612522E0,7.130834183E0
7.966729042E0,-1.608450035E0,-1.228854642E0,-6.921618724E0,7.211518634E0
7.976719042E0,-1.312158754E0,-1.411165856E0,-6.685312859E0,6.957482138E0
7.986708042E0,-7.871349218E-1,-1.621500143E0,-6.379022840E0,6.628783937E0
7.996698042E0,-9.999814653E-1,-1.321183932E0,-6.386289175E0,6.597740472E0
8.006688042E0,-1.129203762E0,-8.872503635E-1,-6.339833046E0,6.500445938E0
8.016678042E0,-9.494692697E-1,-6.587759668E-1,-6.102378203E0,6.210837094E0
8.026668042E0,-8.895097277E-1,-6.033262360E-1,-5.678300117E0,5.779128163E0
8.036658042E0,-8.641595627E-1,-4.764632910E-1,-5.162040676E0,5.255516432E0
8.046648042E0,-7.204617530E-1,-2.700548244E-1,-4.565005460E0,4.629391925E0
8.056638042E0,-6.099724737E-1,-4.499461681E-2,-3.809284412E0,3.858074476E0
8.066628042E0,-4.905707221E-1,1.686635202E-1,-2.976760186E0,3.021623441E0
8.076618042E0,-2.607486883E-1,3.279105382E-1,-2.076321720E0,2.118165972E0
8.086608042E0,-3.270084590E-2,4.984574465E-1,-1.324820607E0,1.415866806E0
8.096598042E0,8.862595528E-2,6.596463248E-1,-6.757691449E-1,9.484997475E-1
8.106588042E0,1.890912066E-1,8.761970794E-1,-6.659978628E-2,8.988394395E-1
8.116578000E0,1.970027818E-1,1.207289526E0,3.890047324E-1,1.283620963E0
8.126567000E0,2.976944666E-1,1.495678588E0,1.109840122E0,1.886112809E0
8.136557000E0,5.415261367E-1,1.617578124E0,2.197222259E0,2.781653321E0
8.146547000E0,8.781882025E-1,1.744153970E0,3.318662088E0,3.850559134E0
8.156537000E0,1.172398898E0,1.907627794E0,4.323366934E0,4.868784717E0
8.166527000E0,1.225398645E0,2.088985620E0,5.104088922E0,5.649529758E0
8.176517000E0,1.145590584E0,2.050679633E0,5.663266341E0,6.131088842E0
8.186507000E0,1.592240530E0,2.303399217E0,5.997705442E0,6.619165236E0
8.196497000E0,1.664841460E0,2.490735528E0,5.990732052E0,6.698084135E0
8.206487000E0,1.385142092E0,2.568542088E0,6.048613640E0,6.715783948E0
8.216477000E0,1.275772993E0,2.560691616E0,6.311983343E0,6.930070130E0
8.226467000E0,1.534591515E0,2.569080616E0,6.719913758E0,7.356112237E0
8.236457000E0,1.576458310E0,2.588944193E0,6.840795001E0,7.482267643E0
8.246447000E0,1.461249889E0,2.379065696E0,6.907505300E0,7.450425108E0
8.256436000E0,1.216159606E0,1.966308989E0,6.690971210E0,7.079160329E0
8.266426000E0,7.176792093E-1,1.518908698E0,6.422292235E0,6.638372138E0
8.276416000E0,2.058234528E-2,1.050351208E0,6.094742324E0,6.184621678E0
8.286406000E0,-5.378442912E-1,3.641449296E-1,5.724422370E0,5.761153485E0
8.296396000E0,-6.137268247E-1,4.930168317E-1,5.494054352E0,5.550167514E0
8.306386000E0,-7.691325143E-1,4.598123212E-1,4.898083913E0,4.979379300E0
8.316376000E0,-8.103527534E-1,1.350136712E-2,4.181799411E0,4.259612680E0
8.326366000E0,-7.874322528E-1,-6.329371208E-1,3.518248608E0,3.660427874E0
8.336356000E0,-6.233495875E-1,-8.114843358E-1,3.651259900E0,3.791934914E0
8.346346000E0,-8.127552281E-1,-7.077395274E-1,3.205744752E0,3.382050519E0
8.356336000E0,-8.572667187E-1,-8.041614291E-1,2.758412290E0,2.998402940E0
8.366326000E0,-6.515749745E-1,-1.003142909E0,2.569595756E0,2.834372592E0
8.376316000E0,-4.427881528E-1,-1.051384631E0,2.418225376E0,2.673814683E0
8.386305000E0,-4.297982709E-1,-1.053697058E0,2.031999241E0,2.328953619E0
8.396295000E0,-5.011003880E-1,-1.059320618E0,1.638979810E0,2.014824208E0
8.406285000E0,-6.802592218E-1,-1.115240903E0,1.204752712E0,1.777060488E0
8.416275000E0,-9.938019817E-1,-1.246947389E0,5.953202283E-1,1.702035941E0
8.426265000E0,-1.298899608E0,-1.461907409E0,-2.391253924E-1,1.970150861E0
8.436255000E0,-1.562979747E0,-1.728864378E0,-1.333583829E0,2.685204566E0
8.446245000E0,-1.695119512E0,-1.998768345E0,-2.196176777E0,3.419312430E0
8.456235000E0,-1.834761254E0,-2.114780319E0,-2.961450421E0,4.075393632E0
8.466225000E0,-1.904599375E0,-2.104305909E0,-3.785313751E0,4.731194599E0
8.476215000E0,-1.776091170E0,-2.105037688E0,-4.408496547E0,5.198127097E0
8.486205000E0,-1.689011364E0,-2.039969873E0,-4.938584653E0,5.603914243E0
8.496195000E0,-1.635617515E0,-2.019984674E0,-5.496979714E0,6.080490828E0
8.506185000E0,-1.500181528E0,-2.101598356E0,-5.988964439E0,6.521882805E0
8.516175000E0,-1.421905729E0,-2.142845785E0,-6.344983274E0,6.846343309E0
8.526164000E0,-1.382190856E0,-2.187828999E0,-6.614162770E0,7.102407792E0
8.536154000E0,-1.380749517E0,-2.251577976E0,-6.855500164E0,7.346696884E0
8.546144000E0,-1.410153411E0,-2.226437287E0,-6.930503569E0,7.414677023E0
8.556134000E0,-1.470626338E0,-2.158597014E0,-6.878002589E0,7.357255093E0
8.566124000E0,-1.587389972E0,-2.032406791E0,-6.828222318E0,7.298979677E0
8.576114000E0,-1.821593471E0,-1.887422156E0,-6.645692711E0,7.144634125E0
8.586104000E0,-2.115050607E0,-1.702346963E0,-6.388987665E0,6.941944081E0
8.596094000E0,-2.331762744E0,-1.498308080E0,-6.058470291E0,6.662364961E0
8.606084000E0,-2.344474737E0,-1.327614407E0,-5.510135949E0,6.133573183E0
8.616074000E0,-2.199847074E0,-1.238642004E0,-4.855309192E0,5.472438991E0
8.626064000E0,-1.989781905E0,-1.248772305E0,-4.218645641E0,4.828626652E0
8.636054000E0,-1.665505119E0,-1.250627042E0,-3.461972666E0,4.040201732E0
8.646044000E0,-1.297871083E0,-1.306787502E0,-2.332147930E0,2.971712787E0
8.656033000E0,-5.943104142E-1,-1.215918847E0,-1.090952446E0,1.738344256E0
8.666023000E0,2.658879523E-1,-9.814601174E-1,5.752169162E-1,1.168261472E0
8.676013000E0,7.585128012E-1,-7.797653836E-1,2.485136819E0,2.712799427E0
8.686003000E0,1.238301550E0,-6.418696198E-1,3.758860947E0,4.009292077E0
8.695993000E0,1.354667427E0,-6.677415025E-1,4.531213231E0,4.776284738E0
8.705983000E0,1.072808536E0,-6.754916945E-1,5.112975520E0,5.267800856E0
8.715973000E0,5.355689934E-1,-6.447289082E-1,5.418038210E0,5.482485527E0
8.725963000E0,1.027355790E-3,-5.325171854E-1,5.432338160E0,5.458376452E0
8.735953000E0,-3.988179682E-1,-3.691788706E-1,5.349584271E0,5.377118251E0
8.745943000E0,-5.426403236E-1,-1.936871181E-1,5.267716820E0,5.299133299E0
8.755933000E0,-3.735185279E-1,-5.330263317E-2,5.373991134E0,5.387219874E0
8.765923000E0,-5.393135503E-2,1.337920417E-1,5.854674945E0,5.856451794E0
8.775913000E0,3.264655450E-1,3.359127451E-1,6.513832151E0,6.530652832E0
8.785902000E0,6.121286345E-1,6.030736363E-1,7.138867929E0,7.190398778E0
8.795892000E0,7.810011926E-1,8.021473557E-1,7.584404712E0,7.666589729E0
8.805882000E0,7.709039283E-1,8.147169690E-1,7.636073633E0,7.718009920E0
8.815872000E0,7.145224437E-1,6.647479474E-1,7.434636469E0,7.498416605E0
8.825862000E0,6.927580838E-1,3.631810161E-1,6.967088428E0,7.010858390E0
8.835852000E0,8.109617409E-1,7.308427535E-2,6.260177012E0,6.312908718E0
8.845842000E0,1.079170892E0,-1.614145808E-1,5.517975896E0,5.624830884E0
8.855832000E0,1.441426805E0,-2.985290835E-1,4.698686843E0,4.923869301E0
8.865822000E0,1.855915896E0,-4.119012594E-1,3.957910693E0,4.390802150E0
8.875812000E0,2.246262418E0,-4.507571769E-1,3.343920305E0,4.053477506E0
8.885802000E0,2.575490334E0,-4.634111363E-1,2.754791694E0,3.799575979E0
8.895792000E0,2.839421369E0,-4.677339828E-1,2.147846616E0,3.590868123E0
8.905782000E0,2.931685462E0,-5.439856218E-1,1.504658157E0,3.339864694E0
8.915772000E0,2.866199278E0,-6.200302693E-1,8.072566527E-1,3.041578396E0
8.925761000E0,2.642697061E0,-6.873596419E-1,5.393764079E-2,2.731157320E0
8.935751000E0,2.333928261E0,-7.667407107E-1,-7.453650445E-1,2.567232263E0
8.945741000E0,1.899234555E0,-8.449847884E-1,-1.508545970E0,2.568424056E0
8.955731000E0,1.425138509E0,-9.323886757E-1,-2.261277337E0,2.830855632E0
8.965721000E0,9.464331029E-1,-9.979254381E-1,-3.003708833E0,3.303612803E0
8.975711000E0,5.105534354E-1,-1.070136359E0,-3.711801971E0,3.896579335E0
8.985701000E0,1.215652214E-1,-1.134500316E0,-4.360074000E0,4.506896310E0
8.995691000E0,-1.565507206E-1,-1.203236529E0,-4.919937882E0,5.067353849E0
9.005681000E0,-3.745265879E-1,-1.242666935E0,-5.337598064E0,5.493127012E0
9.015671000E0,-5.469766188E-1,-1.232546282E0,-5.681076960E0,5.838920207E0
9.025661000E0,-6.774638142E-1,-1.210033917E0,-5.932714224E0,6.092637965E0
9.035651000E0,-8.051627648E-1,-1.143037105E0,-6.099455765E0,6.257649841E0
9.045641000E0,-9.119454941E-1,-1.030152513E0,-6.176374133E0,6.327752856E0
9.055630000E0,-9.607945955E-1,-8.766575477E-1,-6.123402452E0,6.260008969E0
9.065620000E0,-9.271910857E-1,-7.882958865E-1,-5.891521175E0,6.015905208E0
9.075610000E0,-9.500563301E-1,-7.268650389E-1,-5.538508394E0,5.666216996E0
9.085600000E0,-9.167400648E-1,-5.756449324E-1,-5.284857348E0,5.394580301E0
9.095590000E0,-8.240295370E-1,-4.299138996E-1,-4.896412194E0,4.983844201E0
9.105580000E0,-7.394792372E-1,-3.136694983E-1,-4.319211903E0,4.393268664E0
9.115570250E0,-6.871913883E-1,-1.314582717E-1,-3.763620581E0,3.828100464E0
9.125560250E0,-6.333090037E-1,4.207071662E-2,-3.236411644E0,3.298061638E0
9.135550250E0,-5.446102506E-1,1.742742160E-1,-2.692736363E0,2.752780585E0
9.145540250E0,-5.589449921E-1,2.766966766E-1,-2.196856808E0,2.283672566E0
9.155530250E0,-5.282886252E-1,3.156335780E-1,-1.609677073E0,1.723303139E0
9.165520250E0,-4.186957240E-1,3.153663602E-1,-1.057242079E0,1.180052060E0
9.175510250E0,-4.824989332E-1,3.692583928E-1,-7.381209290E-1,9.560227440E-1
9.185500250E0,-5.476765305E-1,5.035306370E-1,-2.862282228E-1,7.971319088E-1
9.195489250E0,-6.956660503E-1,7.131024474E-1,1.092353439E-1,1.002196944E0
9.205479250E0,-8.203878911E-1,9.656284887E-1,4.709271473E-1,1.351757023E0
9.215469250E0,-8.080720469E-1,1.170862250E0,7.946564877E-1,1.629532993E0
9.225459250E0,-6.713840255E-1,1.352303398E0,1.282203176E0,1.980789230E0
9.235449250E0,-4.312991050E-1,1.496160983E0,1.878243781E0,2.439736934E0
9.245439250E0,-5.730592936E-2,1.589772567E0,2.448605754E0,2.919988172E0
9.255429250E0,2.906748842E-1,1.647545396E0,2.891583211E0,3.340681246E0
9.265419250E0,5.142656864E-1,1.652537749E0,3.197532923E0,3.635872247E0
9.275409250E0,6.881874615E-1,1.629039251E0,3.395933627E0,3.828803477E0
9.285399250E0,6.953482541E-1,1.597795239E0,3.433386213E0,3.850272680E0
9.295389250E0,6.445904754E-1,1.626032320E0,3.506730763E0,3.918754729E0
9.305379250E0,5.601619439E-1,1.711346997E0,3.808664022E0,4.212886372E0
9.315369250E0,4.314616576E-1,1.770952637E0,4.409938470E0,4.771791038E0
9.325358250E0,2.989630200E-1,1.750747875E0,5.102957486E0,5.403209427E0
9.335348250E0,1.350901236E-1,1.576299997E0,5.511456251E0,5.734031830E0
9.345338250E0,-6.389515668E-2,1.225157155E0,5.672192116E0,5.803348692E0
9.355328250E0,-2.812863024E-1,6.333125120E-1,5.511308901E0,5.554703639E0
9.365318250E0,-5.565631288E-1,-1.212075180E-1,4.816212954E0,4.849779479E0
9.375308250E0,-9.722472444E-1,-7.374613631E-1,3.900623767E0,4.087050249E0
9.385298250E0,-1.403378680E0,-1.084738026E0,3.050988835E0,3.529116203E0
9.395288250E0,-1.789748950E0,-1.158205951E0,2.310993873E0,3.144095261E0
9.405278250E0,-2.013727423E0,-9.745934397E-1,1.817187740E0,2.882204328E0
9.415268250E0,-2.038543737E0,-7.208111241E-1,1.704589078E0,2.753334917E0
9.425258250E0,-1.948957230E0,-5.381642801E-1,1.786918459E0,2.698357400E0
9.435248250E0,-1.694241991E0,-5.583275262E-1,2.000219623E0,2.680123895E0
9.445238250E0,-1.461429545E0,-7.436637971E-1,2.231103365E0,2.768868792E0
9.455228250E0,-1.357605653E0,-9.019479248E-1,2.374916804E0,2.880422364E0
9.465217250E0,-1.428520685E0,-1.039487155E0,2.295212238E0,2.896412282E0
9.475207250E0,-1.579423433E0,-1.201950141E0,2.026166643E0,2.836302838E0
9.485197250E0,-1.854315659E0,-1.353785813E0,1.458040645E0,2.719761959E0
9.495187250E0,-2.145774655E0,-1.455909043E0,6.835424334E-1,2.681650661E0
9.505177250E0,-2.332823722E0,-1.537212237E0,-1.876926988E-1,2.800056522E0
9.515167250E0,-2.406050888E0,-1.606968058E0,-9.953972483E-1,3.059778244E0
9.525157250E0,-2.434391758E0,-1.636735356E0,-1.710319934E0,3.395638398E0
9.535147250E0,-2.463052470E0,-1.625798139E0,-2.338350656E0,3.765332768E0
9.545137250E0,-2.412344100E0,-1.609156964E0,-2.892971925E0,4.096105070E0
9.555127250E0,-2.334382589E0,-1.577075338E0,-3.256823105E0,4.306205456E0
9.565117250E0,-2.253576993E0,-1.560828849E0,-3.517063377E0,4.459207414E0
9.575107250E0,-2.204866763E0,-1.547736933E0,-3.695727391E0,4.573327891E0
9.585097250E0,-2.105937429E0,-1.539093579E0,-3.789324941E0,4.600300534E0
9.595087250E0,-2.034458872E0,-1.518212295E0,-3.844785782E0,4.607208393E0
9.605076250E0,-1.958552949E0,-1.460906073E0,-3.880543259E0,4.585716105E0
9.615066250E0,-1.877263788E0,-1.373794547E0,-3.862359588E0,4.508797220E0
9.625056250E0,-1.774986631E0,-1.253281970E0,-3.839750159E0,4.411912796E0
9.635046250E0,-1.733011224E0,-1.148835496E0,-3.818666269E0,4.348029781E0
9.645036250E0,-1.740440404E0,-1.089083969E0,-3.831727195E0,4.347110533E0
9.655026250E0,-1.810405701E0,-1.062717119E0,-3.872613850E0,4.405005620E0
9.665016250E0,-1.926277927E0,-1.059998164E0,-3.864963353E0,4.446581213E0
9.675006250E0,-2.017395527E0,-9.908098152E-1,-3.744420664E0,4.367181575E0
9.684996250E0,-2.079185686E0,-8.777781665E-1,-3.585698580E0,4.236831591E0
9.694986250E0,-2.112864771E0,-7.887870526E-1,-3.394566548E0,4.075471090E0
9.704976250E0,-2.106087117E0,-7.553567666E-1,-3.109187926E0,3.830563451E0
9.714966250E0,-2.056147218E0,-6.842446840E-1,-2.760400343E0,3.509379179E0
9.724956250E0,-2.019966402E0,-6.029055288E-1,-2.357178690E0,3.162285680E0
9.734946250E0,-1.948618530E0,-5.027550039E-1,-1.814586899E0,2.709723673E0
9.744935250E0,-1.826886809E0,-4.456768236E-1,-1.211304517E0,2.236828531E0
9.754925250E0,-1.729291225E0,-3.751997486E-1,-6.277968335E-1,1.877592037E0
9.764915250E0,-1.602301103E0,-2.537694517E-1,-6.564844429E-2,1.623600160E0
9.774905250E0,-1.473738957E0,-1.613717499E-1,4.845201695E-1,1.559713804E0
9.784895250E0,-1.414330662E0,-1.311641568E-1,9.423881453E-1,1.704591057E0
9.794885250E0,-1.301219198E0,-8.542431235E-2,1.445526434E0,1.946796185E0
9.804875250E0,-1.209966966E0,2.660073817E-2,2.081150935E0,2.407471054E0
9.814865250E0,-1.015845254E0,2.067560837E-1,2.836784275E0,3.020270631E0
9.824855250E0,-8.330221161E-1,3.570742571E-1,3.550519976E0,3.664371702E0
9.834845250E0,-7.217042863E-1,4.204064731E-1,4.186050337E0,4.268561362E0
9.844835250E0,-6.775212631E-1,3.817600322E-1,4.768871557E0,4.831864207E0
9.854825250E0,-7.252199247E-1,3.002190019E-1,5.197066083E0,5.256003354E0
9.864815250E0,-8.100925523E-1,1.845321326E-1,5.326573724E0,5.390982256E0
9.874804250E0,-9.729500797E-1,7.092438698E-2,5.344881356E0,5.433177600E0
9.884794250E0,-1.120198465E0,3.049746886E-2,5.299360197E0,5.416548089E0
9.894784250E0,-1.355666424E0,1.513946459E-1,5.103877253E0,5.283021371E0
9.904774250E0,-1.553442062E0,3.437114690E-1,4.821230450E0,5.076965911E0
9.914764250E0,-1.737633740E0,4.925038116E-1,4.475838929E0,4.826496156E0
9.924754250E0,-1.881043721E0,5.381791905E-1,4.219067225E0,4.650644102E0
9.934744250E0,-1.857971485E0,5.174682064E-1,4.025182909E0,4.463398799E0
9.944734250E0,-1.600243176E0,4.363889600E-1,3.972064463E0,4.304475537E0
9.954724250E0,-1.065925048E0,2.768848108E-1,4.127088768E0,4.271501271E0
9.964714250E0,-3.378649843E-1,6.635873482E-2,4.322079962E0,4.335773452E0
9.974704250E0,5.394326873E-1,-1.170067321E-1,4.550494425E0,4.583849660E0
9.984694250E0,1.462208687E0,-2.232174575E-1,4.756066740E0,4.980768124E0
9.994684250E0,2.200911706E0,-2.535077888E-1,4.691467286E0,5.188269830E0
1.000467425E1,2.717195266E0,-2.114676239E-1,4.307453152E0,5.097256255E0
1.001466325E1,2.989871982E0,-1.335343257E-1,3.754342219E0,4.801276016E0
1.002465325E1,3.067403723E0,-9.061985582E-2,3.108093912E0,4.367771208E0
1.003464325E1,2.976314043E0,-1.203612797E-1,2.305235535E0,3.766569128E0
1.004463325E1,2.706821136E0,-1.954607248E-1,1.455605280E0,3.079589630E0
1.005462325E1,2.294303434E0,-2.751879488E-1,5.332853633E-1,2.371486862E0
1.006461325E1,1.802007345E0,-3.375112277E-1,-4.619066477E-1,1.890635357E0
1.007460325E1,1.247546290E0,-4.139015919E-1,-1.450809978E0,1.957686356E0
1.008459325E1,7.528895339E-1,-4.489034633E-1,-2.378887063E0,2.535243702E0
1.009458325E1,3.870539550E-1,-5.313458419E-1,-3.226084292E0,3.292378931E0
1.010457325E1,1.510012744E-1,-5.856705683E-1,-3.934155795E0,3.980376015E0
1.011456292E1,1.315199599E-2,-6.778389131E-1,-4.494708479E0,4.545551988E0
1.012455292E1,-6.639688790E-2,-7.165885574E-1,-4.945410107E0,4.997498258E0
1.013454292E1,-1.168324850E-1,-6.854015556E-1,-5.278937627E0,5.324528861E0
1.014453292E1,-1.551832031E-1,-5.593040112E-1,-5.448579386E0,5.479408739E0
1.015452192E1,-1.684490736E-1,-4.343952057E-1,-5.488135216E0,5.507876399E0
1.016451192E1,-2.046778370E-1,-3.611018193E-1,-5.480404027E0,5.496100057E0
1.017450192E1,-2.508544685E-1,-3.225280300E-1,-5.389548236E0,5.405014568E0
1.018449192E1,-2.659544644E-1,-3.348644856E-1,-5.215963699E0,5.233463797E0
1.019448192E1,-2.757912353E-1,-3.275943500E-1,-4.992965512E0,5.011295588E0
1.020447192E1,-2.949828203E-1,-3.129789421E-1,-4.778284405E0,4.797600706E0
1.021446192E1,-2.885815810E-1,-2.709146574E-1,-4.442520910E0,4.460119518E0
1.022445192E1,-3.076974446E-1,-2.259276420E-1,-4.039130273E0,4.057128834E0
1.023444192E1,-3.061328758E-1,-1.885680270E-1,-3.665712463E0,3.683303287E0
1.024443192E1,-2.697585167E-1,-2.250797957E-1,-3.376546015E0,3.394774449E0
1.025442192E1,-1.892772943E-1,-2.637655592E-1,-3.023616264E0,3.040995474E0
1.026441192E1,-1.351355857E-1,-2.654919496E-1,-2.642938551E0,2.659675128E0
1.027440192E1,-1.289142944E-1,-1.865428439E-1,-2.328874074E0,2.339887087E0
1.028439192E1,-2.396966654E-1,-5.093977332E-2,-2.014892626E0,2.029739305E0
1.029438092E1,-3.979218824E-1,8.206742585E-2,-1.741117803E0,1.787894877E0
1.030437092E1,-5.948644379E-1,2.248540932E-1,-1.527993810E0,1.655049288E0
1.031436092E1,-7.082668000E-1,3.140945908E-1,-1.319194416E0,1.529892539E0
1.032435092E1,-8.181030916E-1,4.130455595E-1,-1.179978644E0,1.494071251E0
1.033434092E1,-9.138530020E-1,5.807299635E-1,-9.745507550E-1,1.456751102E0
1.034433092E1,-8.894427770E-1,7.994377559E-1,-4.893499696E-1,1.292158106E0
1.035432092E1,-7.708064260E-1,1.047232815E0,2.233496046E-1,1.319365060E0
1.036431092E1,-5.517077471E-1,1.284542647E0,1.060835193E0,1.754936625E0
1.037430092E1,-1.962059525E-1,1.480667323E0,2.054006991E0,2.539649034E0
1.038429092E1,1.728391631E-1,1.613812517E0,3.058435264E0,3.462411079E0
1.039428092E1,4.533819920E-1,1.697079206E0,3.918929061E0,4.294605692E0
1.040427092E1,6.682848550E-1,1.677667912E0,4.573938251E0,4.917528383E0
1.041426092E1,7.899630739E-1,1.635001949E0,5.000020178E0,5.319537086E0
1.042425092E1,7.239716904E-1,1.619131436E0,5.144622406E0,5.441770053E0
1.043424092E1,5.554322773E-1,1.651572666E0,5.079800173E0,5.370341431E0
1.044422992E1,3.538388465E-1,1.768931547E0,4.963397312E0,5.281063683E0
1.045421992E1,2.139594148E-1,1.839920107E0,4.784240379E0,5.130306095E0
1.046420992E1,1.109766448E-1,1.777603991E0,4.470791613E0,4.812501367E0
1.047419992E1,-1.710310578E-5,1.585390663E0,4.158667826E0,4.450615872E0
1.048418992E1,-1.841000234E-1,1.381960476E0,3.860988416E0,4.104989540E0
1.049417992E1,-4.377545042E-1,1.231035946E0,3.544547630E0,3.777684000E0
1.050416992E1,-6.553185812E-1,1.016042305E0,3.198986540E0,3.419839074E0
1.051415992E1,-7.102184545E-1,6.558586447E-1,2.928561587E0,3.083996398E0
1.052414992E1,-5.949535348E-1,1.239745666E-1,2.699688118E0,2.767246888E0
1.053413992E1,-5.071591998E-1,-3.775281098E-1,2.509158350E0,2.587588366E0
1.054412992E1,-4.949353762E-1,-6.910711621E-1,2.344070402E0,2.493432660E0
1.055411992E1,-5.209952469E-1,-8.305619001E-1,2.180853564E0,2.391106728E0
1.056410992E1,-5.718357638E-1,-8.909677309E-1,2.105177144E0,2.356393526E0
1.057409892E1,-5.570591189E-1,-9.100439796E-1,2.144389742E0,2.395183140E0
1.058408892E1,-4.636951648E-1,-8.770700687E-1,2.167734751E0,2.383975474E0
1.059407892E1,-3.112483124E-1,-8.678396541E-1,2.158269278E0,2.346944280E0
1.060406892E1,-2.080049028E-1,-9.476257887E-1,2.046720775E0,2.265022430E0
1.061405892E1,-1.647505635E-1,-1.086275259E0,1.751147532E0,2.067281879E0
1.062404892E1,-2.820138422E-1,-1.269329361E0,1.203133618E0,1.771513290E0
1.063403892E1,-5.350374815E-1,-1.346205044E0,4.369220799E-1,1.513087582E0
1.064402892E1,-8.553024928E-1,-1.414808671E0,-4.479493439E-1,1.712858589E0
1.065401892E1,-1.120090145E0,-1.473052202E0,-1.270549675E0,2.244722967E0
1.066400892E1,-1.295879960E0,-1.544197614E0,-1.968437667E0,2.817551772E0
1.067399892E1,-1.363330077E0,-1.557378699E0,-2.569419170E0,3.299395730E0
1.068398892E1,-1.391394666E0,-1.500512188E0,-3.126429611E0,3.736586417E0
1.069397892E1,-1.406868445E0,-1.423214336E0,-3.558785015E0,4.082862801E0
1.070396892E1,-1.368439520E0,-1.350425272E0,-3.880126938E0,4.330318717E0
1.071395892E1,-1.304318077E0,-1.263118156E0,-4.124314265E0,4.506293519E0
1.072394792E1,-1.234361842E0,-1.204947716E0,-4.341458219E0,4.671595833E0
1.073393792E1,-1.177559943E0,-1.124775958E0,-4.494379281E0,4.780294289E0
1.074392792E1,-1.067902138E0,-1.060808296E0,-4.635859680E0,4.874107528E0
1.075391792E1,-1.047697815E0,-9.981509945E-1,-4.728411164E0,4.944881015E0
1.076390792E1,-1.090184999E0,-9.567310730E-1,-4.782614853E0,4.997723733E0
1.077389792E1,-1.157139565E0,-8.594386670E-1,-4.815627063E0,5.026715708E0
1.078388792E1,-1.214924820E0,-7.418295255E-1,-4.832893306E0,5.038175371E0
1.079387792E1,-1.281188392E0,-6.733738330E-1,-4.810990806E0,5.023993287E0
1.080386792E1,-1.328172377E0,-5.906860176E-1,-4.660502186E0,4.881929174E0
1.081385792E1,-1.385850190E0,-4.652155870E-1,-4.407813592E0,4.643902126E0
1.082384792E1,-1.419671947E0,-3.995645115E-1,-4.110468643E0,4.367043931E0
1.083383792E1,-1.463918266E0,-3.638310072E-1,-3.775976332E0,4.066131694E0
1.084382792E1,-1.462177696E0,-3.451082227E-1,-3.434708269E0,3.748904399E0
1.085381792E1,-1.421828839E0,-2.826277998E-1,-3.079184108E0,3.403358708E0
1.086380692E1,-1.311717582E0,-1.686424702E-1,-2.668832361E0,2.978541500E0
1.087379692E1,-1.096561534E0,-3.007807732E-2,-2.120382829E0,2.387336430E0
1.088378692E1,-7.381796935E-1,5.873908192E-2,-1.404661413E0,1.587902146E0
1.089377692E1,-2.431626025E-1,9.132035226E-2,-5.709151196E-1,6.272252640E-1
1.090376692E1,3.481157380E-1,1.138827109E-1,4.909585387E-1,6.125309181E-1
1.091375692E1,9.481353736E-1,1.245673281E-1,1.665482315E0,1.920497083E0
1.092374692E1,1.368452238E0,1.811087340E-1,2.794618834E0,3.116946635E0
1.093373692E1,1.512506582E0,1.742400098E-1,3.632451162E0,3.938621229E0
1.094372692E1,1.385966696E0,5.814880550E-2,4.118903836E0,4.346222932E0
1.095371692E1,1.061250345E0,-1.886995894E-1,4.399633337E0,4.529749809E0
1.096370692E1,7.535309735E-1,-5.515653674E-1,4.565780801E0,4.660299089E0
1.097369692E1,4.848002511E-1,-9.027495781E-1,4.500518857E0,4.615696921E0
1.098368692E1,2.638330945E-1,-1.074402195E0,4.345496306E0,4.484114866E0
1.099367692E1,8.597131938E-2,-1.029842757E0,4.301393682E0,4.423794161E0
1.100366592E1,-2.317397743E-3,-8.120722733E-1,4.319388489E0,4.395063556E0
1.101365592E1,-8.587323233E-2,-5.681998189E-1,4.375514742E0,4.413088998E0
1.102364592E1,-7.946614578E-2,-3.945243578E-1,4.556852687E0,4.574589681E0
1.103363592E1,-8.626104891E-4,-4.163726252E-1,4.797244002E0,4.815279526E0
1.104362592E1,6.241347224E-2,-6.059555827E-1,4.842372227E0,4.880537511E0
1.105361592E1,1.302594464E-1,-8.472967775E-1,4.738756058E0,4.815671119E0
1.106360592E1,2.981040640E-1,-1.064762475E0,4.601028986E0,4.732024185E0
1.107359592E1,6.222143506E-1,-1.296570223E0,4.347965001E0,4.579633685E0
1.108358592E1,1.128513352E0,-1.457316614E0,4.066823271E0,4.465015746E0
1.109357592E1,1.786432555E0,-1.540809591E0,3.822802005E0,4.492132081E0
1.110356592E1,2.432955389E0,-1.572652942E0,3.589126217E0,4.612411106E0
1.111355642E1,3.010009208E0,-1.522395539E0,3.326714289E0,4.737601880E0
1.112354642E1,3.449717487E0,-1.344324580E0,2.983483315E0,4.754885067E0
1.113353642E1,3.712877567E0,-1.157076123E0,2.577790044E0,4.665756797E0
1.114352542E1,3.761065933E0,-1.027939781E0,2.139865751E0,4.447617629E0
1.115351542E1,3.593315455E0,-9.191999884E-1,1.603979546E0,4.040989355E0
1.116350542E1,3.172335809E0,-8.560228698E-1,9.529622501E-1,3.421202520E0
1.117349542E1,2.590061303E0,-7.750329396E-1,1.993602329E-1,2.710874050E0
1.118348542E1,1.942851129E0,-6.959831156E-1,-5.850449163E-1,2.145073556E0
1.119347542E1,1.322296657E0,-6.181331402E-1,-1.388236585E0,2.014387709E0
1.120346542E1,8.109979936E-1,-5.203100994E-1,-2.188727424E0,2.391436406E0
1.121345542E1,4.183697417E-1,-4.610259108E-1,-2.937564545E0,3.002809283E0
1.122344542E1,1.696082110E-1,-4.213822272E-1,-3.610451013E0,3.638912811E0
1.123343542E1,-9.761853442E-3,-3.694482811E-1,-4.159251963E0,4.175639378E0
1.124342542E1,-1.194956725E-1,-2.597033523E-1,-4.589615806E0,4.598510443E0
1.125341542E1,-1.557684363E-1,-1.420687754E-1,-5.004860503E0,5.009298953E0
1.126340542E1,-2.016863284E-1,-8.583420217E-3,-5.349268522E0,5.353076197E0
1.127339542E1,-1.943678071E-1,1.717249762E-1,-5.563710478E0,5.569752472E0
1.128338442E1,-2.022739736E-1,3.922513989E-1,-5.718144214E0,5.735150318E0
1.129337442E1,-2.117933869E-1,5.223256347E-1,-5.837487640E0,5.864634895E0
1.130336442E1,-1.940361969E-1,6.369379319E-1,-5.797088642E0,5.835201513E0
1.131335442E1,-1.885107974E-1,8.221743616E-1,-5.743220583E0,5.804833302E0
1.132334442E1,-2.573219275E-1,1.002596048E0,-5.632688912E0,5.727006005E0
1.133333442E1,-3.753897831E-1,1.184517691E0,-5.474084356E0,5.613341179E0
1.134332442E1,-4.752401997E-1,1.346876012E0,-5.237225345E0,5.428485751E0
1.135331442E1,-5.324339356E-1,1.478722393E0,-4.947280047E0,5.190923393E0
1.136330442E1,-5.173984053E-1,1.580642578E0,-4.623405111E0,4.913451627E0
1.137329442E1,-3.554642994E-1,1.690837596E0,-4.202052412E0,4.543405234E0
1.138328442E1,-1.722054711E-1,1.780015529E0,-3.736128727E0,4.142072896E0
1.139327442E1,3.905209154E-4,1.855609648E0,-3.227393484E0,3.722815603E0
1.140326442E1,1.425051239E-1,1.985590621E0,-2.751009130E0,3.395722170E0
1.141325442E1,2.943297594E-1,2.055248208E0,-2.244353741E0,3.057417034E0
1.142324442E1,4.165712113E-1,1.966575183E0,-1.634728884E0,2.591001360E0
1.143323342E1,5.801165906E-1,1.810276624E0,-1.018462175E0,2.156594982E0
1.144322342E1,7.627863119E-1,1.687078567E0,-3.120606369E-1,1.877620540E0
1.145321342E1,9.890296304E-1,1.696234284E0,5.513018042E-1,2.039442089E0
1.146320342E1,1.224969752E0,1.768164830E0,1.560882643E0,2.657689295E0
1.147319342E1,1.485765218E0,1.867727710E0,2.793499677E0,3.674172768E0
1.148318342E1,1.756809391E0,1.937102877E0,3.968995845E0,4.753070041E0
1.149317342E1,1.956438304E0,1.795624963E0,4.836336147E0,5.517433023E0
1.150316342E1,2.096116884E0,1.473918759E0,5.481746548E0,6.051089796E0
1.151315342E1,2.112746950E0,1.102837351E0,5.839611349E0,6.307218927E0
1.152314342E1,1.968241493E0,7.841597123E-1,5.883052652E0,6.252934475E0
1.153313342E1,1.700481994E0,6.279487149E-1,5.610344362E0,5.895924224E0
1.154312342E1,1.296237371E0,6.249404687E-1,5.178943223E0,5.375149748E0
1.155311342E1,9.215757121E-1,7.759626469E-1,4.822425621E0,4.970634636E0
1.156310342E1,6.370309757E-1,9.865974811E-1,4.567126830E0,4.715700429E0
1.157309242E1,4.127730793E-1,1.030309365E0,4.428528523E0,4.565499302E0
1.158308242E1,2.764350868E-1,9.043349044E-1,4.347182643E0,4.448846470E0
1.159307242E1,2.092668781E-1,7.079028109E-1,4.130281933E0,4.195729717E0
1.160306242E1,2.153626735E-1,4.602672346E-1,3.852698234E0,3.886066223E0
1.161305242E1,2.391774692E-1,1.383034609E-1,3.491371297E0,3.502286002E0
1.162304242E1,3.152304125E-1,-2.533174619E-1,3.022569612E0,3.049502748E0
1.163303242E1,4.389857085E-1,-6.386796713E-1,2.517825093E0,2.634400003E0
1.164302242E1,5.587589776E-1,-9.558538444E-1,2.143599783E0,2.412651694E0
1.165301242E1,6.354284001E-1,-1.132530389E0,1.855552492E0,2.264833191E0
1.166300242E1,7.400362576E-1,-1.159141067E0,1.705799451E0,2.191121504E0
1.167299242E1,8.658128630E-1,-1.129590117E0,1.695538173E0,2.213697233E0
1.168298242E1,1.018308978E0,-1.181028511E0,1.765110099E0,2.355290891E0
1.169297242E1,1.134917149E0,-1.343770995E0,1.862668553E0,2.561892184E0
1.170296242E1,1.143548005E0,-1.472289140E0,1.875633584E0,2.644492143E0
1.171295142E1,1.083143051E0,-1.547140810E0,1.790640212E0,2.602544125E0
1.172294142E1,8.754368683E-1,-1.659541544E0,1.590516917E0,2.459717852E0
1.173293142E1,5.952715503E-1,-1.762623863E0,1.310196721E0,2.275479410E0
1.174292142E1,3.155132715E-1,-1.818729066E0,9.381255251E-1,2.070604632E0
1.175291142E1,6.874425262E-2,-1.847184541E0,4.977442324E-1,1.914305572E0
1.176290142E1,-1.112687863E-1,-1.860830481E0,2.115873456E-2,1.864274259E0
1.177289142E1,-2.183079891E-1,-1.878030066E0,-5.678435773E-1,1.974107807E0
1.178288142E1,-2.956458946E-1,-1.905865443E0,-1.192030925E0,2.267303973E0
1.179287142E1,-3.940523413E-1,-1.948644550E0,-1.840870133E0,2.709482548E0
1.180286142E1,-4.530768404E-1,-1.981224943E0,-2.512015885E0,3.231215670E0
1.181285142E1,-4.867369220E-1,-1.973099360E0,-3.107080005E0,3.712678288E0
1.182284142E1,-5.198125014E-1,-1.980050530E0,-3.651856901E0,4.186509759E0
1.183283142E1,-5.124008632E-1,-1.979714023E0,-4.143329995E0,4.620498426E0
1.184282142E1,-4.726382618E-1,-1.990771985E0,-4.538822213E0,4.978701347E0
1.185281142E1,-4.365433996E-1,-1.970790879E0,-4.854020466E0,5.257004994E0
1.186280042E1,-4.178448080E-1,-1.913019512E0,-5.061949793E0,5.427483178E0
1.187279042E1,-4.159402236E-1,-1.813569776E0,-5.192743821E0,5.516033901E0
1.188278042E1,-4.449757424E-1,-1.667998956E0,-5.240852373E0,5.517858056E0
1.189277042E1,-4.662461588E-1,-1.578207359E0,-5.198555954E0,5.452807346E0
1.190276042E1,-4.689348547E-1,-1.447584069E0,-5.086070142E0,5.308814277E0
1.191275042E1,-4.750902186E-1,-1.319630619E0,-4.897881015E0,5.094739848E0
1.192274042E1,-5.146166655E-1,-1.208198183E0,-4.643810724E0,4.825924907E0
1.193273042E1,-6.283093420E-1,-1.133264361E0,-4.380410616E0,4.568047494E0
1.194272042E1,-7.015061031E-1,-1.054292451E0,-4.075143859E0,4.267369313E0
1.195271042E1,-7.547489485E-1,-9.795875466E-1,-3.787990022E0,3.984734137E0
1.196270042E1,-7.798365735E-1,-8.695207286E-1,-3.424054057E0,3.617783515E0
1.197269042E1,-8.201107331E-1,-7.196568838E-1,-2.981067830E0,3.174468940E0
1.198268042E1,-8.600064316E-1,-5.046880934E-1,-2.533967502E0,2.723107128E0
1.199267042E1,-8.400725426E-1,-3.191916087E-1,-2.053637447E0,2.241658297E0
1.200266042E1,-7.339492330E-1,-2.002159730E-1,-1.468092009E0,1.653499942E0
1.201264942E1,-5.703605112E-1,-7.439997196E-2,-8.218553960E-1,1.003141446E0
1.202263942E1,-2.875877005E-1,1.164867684E-1,-4.521359503E-2,3.135603959E-1
1.203262942E1,1.834628230E-1,3.264047340E-1,9.399159425E-1,1.011751272E0
1.204261942E1,8.341228545E-1,4.850467113E-1,2.053174932E0,2.268602775E0
1.205260942E1,1.433396239E0,6.998541185E-1,3.256536591E0,3.626217194E0
1.206259942E1,1.807267939E0,8.888104007E-1,4.089833234E0,4.558830685E0
1.207258942E1,1.800117379E0,9.185695124E-1,4.510129341E0,4.942211974E0
1.208257942E1,1.468959736E0,8.436055765E-1,4.630591339E0,4.930708795E0
1.209256942E1,9.561443049E-1,6.755199073E-1,4.510129926E0,4.659593440E0
1.210255942E1,5.158790794E-1,3.980856045E-1,4.208421784E0,4.258569864E0
1.211254942E1,2.468709067E-1,1.127847500E-1,3.843083072E0,3.852655337E0
1.212253975E1,1.302435127E-1,-4.670682773E-2,3.533250225E0,3.535958434E0
1.213252975E1,1.555087468E-1,2.853309676E-2,3.313105479E0,3.316875792E0
1.214251975E1,2.737454407E-1,2.330315705E-1,3.234009608E0,3.253929689E0
1.215250875E1,3.896464643E-1,4.560797511E-1,3.212809943E0,3.268329977E0
1.216249875E1,4.556542200E-1,6.435275978E-1,3.280080990E0,3.373526321E0
1.217248875E1,5.495586030E-1,7.150992715E-1,3.373393781E0,3.491871593E0
1.218247875E1,6.233954881E-1,6.390930694E-1,3.396393219E0,3.511772883E0
1.219246875E1,7.065534197E-1,4.525831161E-1,3.359284449E0,3.462490610E0
1.220245875E1,8.436295500E-1,1.855441394E-1,3.221018849E0,3.334831311E0
1.221244875E1,1.048240583E0,-1.287635824E-1,3.013040405E0,3.192773224E0
1.222243875E1,1.273379581E0,-3.617296641E-1,2.827639815E0,3.122161243E0
1.223242875E1,1.582054973E0,-4.719346225E-1,2.693248580E0,3.158988467E0
1.224241875E1,1.970423382E0,-5.075777873E-1,2.662013923E0,3.350600191E0
1.225240875E1,2.381197737E0,-5.129616112E-1,2.680066032E0,3.621599952E0
1.226239875E1,2.747463963E0,-4.792243463E-1,2.638727387E0,3.839413552E0
1.227238875E1,3.003567916E0,-5.236687401E-1,2.511536998E0,3.950122436E0
1.228237875E1,3.086220648E0,-5.897979717E-1,2.257162651E0,3.868772773E0
1.229236775E1,3.002320704E0,-7.196627310E-1,1.804199320E0,3.575888595E0
1.230235775E1,2.660326416E0,-8.288087587E-1,1.108843757E0,2.998965668E0
1.231234775E1,2.147656435E0,-8.511556475E-1,2.682269847E-1,2.325691255E0
1.232233775E1,1.589506226E0,-8.312954333E-1,-6.132495457E-1,1.895694370E0
1.233232775E1,1.088796578E0,-7.821336521E-1,-1.486604878E0,2.001800465E0
1.234231775E1,7.112868869E-1,-7.883923656E-1,-2.321125928E0,2.552472749E0
1.235230775E1,4.540519367E-1,-7.515666014E-1,-3.042198715E0,3.166384143E0
1.236229775E1,3.017598894E-1,-7.367202285E-1,-3.658606342E0,3.744224365E0
1.237228775E1,1.699333162E-1,-7.248277228E-1,-4.168454311E0,4.234414234E0
1.238227775E1,6.242772482E-2,-6.801858392E-1,-4.577755314E0,4.628433181E0
1.239226775E1,-3.044901006E-2,-6.015005891E-1,-4.885580227E0,4.922562773E0
1.240225775E1,-1.253878386E-1,-4.791033089E-1,-5.086434424E0,5.110486987E0
1.241224775E1,-2.069659987E-1,-3.198709090E-1,-5.195135917E0,5.209087206E0
1.242223775E1,-2.536427864E-1,-1.986907268E-1,-5.183616902E0,5.193620785E0
1.243222775E1,-3.076689394E-1,-1.662755173E-1,-5.103017128E0,5.114986953E0
1.244221675E1,-3.859130902E-1,-1.279034570E-1,-4.936987193E0,4.953698694E0
1.245220675E1,-4.257549944E-1,-7.000461996E-2,-4.723792448E0,4.743456868E0
1.246219675E1,-4.522503365E-1,-7.326853573E-3,-4.433016846E0,4.456032137E0
1.247218675E1,-4.815066607E-1,4.497649044E-2,-4.131326246E0,4.159534601E0
1.248217675E1,-4.802440276E-1,1.095893928E-1,-3.746820946E0,3.779062233E0
1.249216675E1,-4.825783092E-1,1.752483621E-1,-3.422483495E0,3.460778393E0
1.250215675E1,-4.635646257E-1,2.738229163E-1,-3.107099301E0,3.153400897E0
1.251214675E1,-4.440401879E-1,3.724774311E-1,-2.790422287E0,2.849976783E0
1.252213675E1,-4.700449486E-1,4.947606906E-1,-2.463327289E0,2.556112620E0
1.253212675E1,-5.306838640E-1,6.335681815E-1,-2.146188346E0,2.299817040E0
1.254211675E1,-5.335849600E-1,7.444641347E-1,-1.774430560E0,1.996883465E0
1.255210675E1,-4.280116542E-1,7.674252735E-1,-1.357390768E0,1.616986464E0
1.256209675E1,-2.353385894E-1,7.184720917E-1,-9.448194176E-1,1.210070300E0
1.257208675E1,2.315241583E-2,6.825815897E-1,-4.579931062E-1,8.223207077E-1
1.258207575E1,2.377385060E-1,7.173668218E-1,7.972093821E-2,7.599277480E-1
1.259206575E1,4.967825847E-1,7.761246148E-1,6.379253805E-1,1.120763644E0
1.260205575E1,8.111242935E-1,8.060128038E-1,1.247563101E0,1.692333581E0
1.261204575E1,1.254624491E0,8.219761410E-1,1.929121574E0,2.443611556E0
1.262203575E1,1.759884734E0,8.710351574E-1,2.674291322E0,3.317790017E0
1.263202575E1,2.271737860E0,9.558449274E-1,3.304959723E0,4.122764994E0
1.264201575E1,2.662132037E0,1.063361190E0,3.761672873E0,4.729467920E0
1.265200575E1,2.849920630E0,1.143705149E0,4.035633053E0,5.071138255E0
1.266199575E1,2.819213684E0,1.223430473E0,4.108046141E0,5.130379228E0
1.267198575E1,2.606155179E0,1.259645641E0,4.073474479E0,4.997193842E0
1.268197575E1,2.316591120E0,1.257869988E0,4.066197034E0,4.845904420E0
1.269196575E1,2.016717689E0,1.203987019E0,4.109353579E0,4.733235871E0
1.270195575E1,1.719350081E0,1.103846726E0,4.215640172E0,4.684684019E0
1.271194575E1,1.344522362E0,9.219997814E-1,4.380417632E0,4.673957917E0
1.272193475E1,9.228294282E-1,7.369419841E-1,4.437324489E0,4.591791183E0
1.273192475E1,5.386656057E-1,5.376220970E-1,4.363360135E0,4.429233548E0
1.274191475E1,1.950935928E-1,2.207375072E-1,4.073595516E0,4.084233953E0
1.275190475E1,-2.957105063E-2,-2.015166861E-1,3.607042086E0,3.612787848E0
1.276189475E1,-7.643597245E-2,-6.532035702E-1,3.012494275E0,3.083445981E0
1.277188475E1,1.858464405E-2,-1.047774267E0,2.279853941E0,2.509165259E0
1.278187475E1,1.782846750E-1,-1.358961622E0,1.574753408E0,2.087680630E0
1.279186475E1,3.448393238E-1,-1.487878987E0,1.070066777E0,1.864870222E0
1.280185475E1,5.165977022E-1,-1.473089039E0,6.898656124E-1,1.706686575E0
1.281184475E1,7.024389533E-1,-1.381223727E0,4.978980142E-1,1.627606187E0
1.282183475E1,9.613332702E-1,-1.236809487E0,5.730388284E-1,1.668002656E0
1.283182475E1,1.272775710E0,-1.144901197E0,7.961106902E-1,1.888001322E0
1.284181475E1,1.529096594E0,-1.137271165E0,1.110433030E0,2.205580108E0
1.285180475E1,1.540922880E0,-1.188888631E0,1.512035004E0,2.464578940E0
1.286179475E1,1.348298640E0,-1.237111203E0,1.861447070E0,2.610237258E0
1.287178375E1,9.764769740E-1,-1.306763821E0,2.071315919E0,2.636567579E0
1.288177375E1,4.484761781E-1,-1.464386336E0,2.167164647E0,2.653706998E0
1.289176375E1,-8.691082075E-2,-1.656970815E0,2.039369656E0,2.629093830E0
1.290175375E1,-5.648534574E-1,-1.892941927E0,1.667339391E0,2.585016288E0
1.291174375E1,-9.573786521E-1,-2.085327601E0,1.117287136E0,2.552155096E0
1.292173375E1,-1.265632605E0,-2.191433223E0,3.789580464E-1,2.558869802E0
1.293172375E1,-1.442453138E0,-2.219456589E0,-4.355222565E-1,2.682599158E0
1.294171375E1,-1.501619943E0,-2.182030023E0,-1.238382972E0,2.923988691E0
1.295170375E1,-1.482480252E0,-2.060569321E0,-1.919555529E0,3.182512695E0
1.296169375E1,-1.363005264E0,-1.951696504E0,-2.489992347E0,3.444846075E0
1.297168375E1,-1.208335447E0,-1.853861477E0,-2.909255835E0,3.655221805E0
1.298167375E1,-1.013366911E0,-1.766218731E0,-3.176153748E0,3.772849551E0
1.299166375E1,-8.843416661E-1,-1.657462859E0,-3.344415565E0,3.835929976E0
1.300165375E1,-7.957928941E-1,-1.480019452E0,-3.471056900E0,3.856420609E0
1.301164375E1,-6.939655338E-1,-1.289637911E0,-3.475840507E0,3.771766341E0
1.302163275E1,-6.448008290E-1,-1.134061044E0,-3.444409384E0,3.683180496E0
1.303162275E1,-6.505714461E-1,-1.030795415E0,-3.377273408E0,3.590509444E0
1.304161275E1,-7.306638287E-1,-9.802444813E-1,-3.266265188E0,3.487583283E0
1.305160275E1,-8.592632505E-1,-9.484356281E-1,-3.098284038E0,3.352197407E0
1.306159275E1,-1.040031969E0,-9.463420326E-1,-2.888404080E0,3.212492469E0
1.307158275E1,-1.172267920E0,-9.226280648E-1,-2.671311581E0,3.059633995E0
1.308157275E1,-1.220886934E0,-8.846658942E-1,-2.417790343E0,2.849369894E0
1.309156275E1,-1.228333363E0,-8.206631488E-1,-2.150096040E0,2.608678561E0
1.310155275E1,-1.224959666E0,-7.276055887E-1,-1.846287578E0,2.332105036E0
1.311154275E1,-1.136250388E0,-6.141359836E-1,-1.433965319E0,1.929892351E0
1.312153188E1,-9.370076837E-1,-5.050795645E-1,-9.318555558E-1,1.414723840E0
1.313152188E1,-6.618549643E-1,-4.463328812E-1,-5.301793224E-1,9.583084829E-1
1.314151188E1,-3.568593720E-1,-5.391583067E-1,-1.081331438E-1,6.555402870E-1
1.315150188E1,-8.553716362E-2,-5.812953892E-1,2.643216294E-1,6.442723490E-1
1.316149087E1,1.533194031E-1,-5.306172788E-1,6.191768682E-1,8.297237673E-1
1.317148088E1,3.568937244E-1,-3.798842454E-1,9.615991724E-1,1.093781577E0
1.318147088E1,5.194923663E-1,-2.506718892E-1,1.268041804E0,1.393068100E0
1.319146088E1,6.664595005E-1,-1.951575467E-1,1.547209514E0,1.695910379E0
1.320145087E1,7.963755691E-1,-2.152061874E-1,1.751819378E0,1.936336459E0
1.321144088E1,8.576058573E-1,-3.459356037E-1,1.847234827E0,2.065777276E0
1.322143088E1,7.567831948E-1,-4.839097202E-1,1.752909883E0,1.969665576E0
1.323142088E1,4.252527916E-1,-6.491075957E-1,1.456021602E0,1.649902879E0
1.324141087E1,4.390235692E-3,-7.609765255E-1,1.069331782E0,1.312469050E0
1.325140088E1,-2.950743292E-1,-8.677694875E-1,7.037328690E-1,1.155565963E0
1.326139088E1,-3.995836611E-1,-9.569643769E-1,5.771809959E-1,1.186838583E0
1.327138088E1,-3.344069409E-1,-9.389599228E-1,6.947269875E-1,1.214956512E0
1.328137087E1,-1.403305444E-1,-8.268129578E-1,9.581066304E-1,1.273295191E0
1.329136088E1,9.264167681E-2,-7.385889986E-1,1.432635078E0,1.614478075E0
1.330135088E1,3.201736486E-1,-7.441725048E-1,1.924560746E0,2.088118279E0
1.331133988E1,5.187829529E-1,-7.447431931E-1,2.406126902E0,2.571619110E0
1.332132987E1,6.507448161E-1,-7.199425203E-1,2.818605282E0,2.980993422E0
1.333131988E1,6.436935125E-1,-6.935923353E-1,2.971156799E0,3.118202109E0
1.334130988E1,4.796092393E-1,-7.000418141E-1,2.961436388E0,3.080615043E0
1.335129988E1,2.790523736E-1,-7.109544727E-1,2.818493600E0,2.920142576E0
1.336128987E1,1.111726727E-1,-7.463704732E-1,2.643810371E0,2.749392938E0
1.337127988E1,2.651624590E-2,-7.867279556E-1,2.437759169E0,2.561701340E0
1.338126988E1,-2.125609070E-3,-8.721458361E-1,2.142070736E0,2.312814285E0
1.339125988E1,3.169176266E-2,-1.037872007E0,1.832404534E0,2.106155039E0
1.340124987E1,1.633817303E-1,-1.204343114E0,1.466625527E0,1.904764123E0
1.341123988E1,3.472263765E-1,-1.257089677E0,1.072347776E0,1.688422449E0
1.342122988E1,6.073767485E-1,-1.257922905E0,7.029411560E-1,1.563778379E0
1.343121988E1,9.488415711E-1,-1.286760204E0,3.495605850E-1,1.636534372E0
1.344120987E1,1.295862126E0,-1.300137171E0,6.989644647E-2,1.836981444E0
1.345119888E1,1.674540383E0,-1.316561415E0,-1.887218088E-1,2.138465659E0
1.346118888E1,2.047365577E0,-1.290584867E0,-4.209445632E-1,2.456523851E0
1.347117888E1,2.418676343E0,-1.254285645E0,-5.602591538E-1,2.781567552E0
1.348116888E1,2.760398589E0,-1.195000725E0,-7.015156049E-1,3.088681150E0
1.349115888E1,3.050204723E0,-1.068650289E0,-8.301917714E-1,3.336911846E0
1.350114888E1,3.246732565E0,-9.087923831E-1,-9.421601039E-1,3.500691589E0
1.351113888E1,3.285425637E0,-7.681577834E-1,-1.177657884E0,3.573648848E0
1.352112888E1,3.173170499E0,-6.758673781E-1,-1.420751197E0,3.541799216E0
1.353111888E1,2.924877257E0,-6.200948811E-1,-1.664616927E0,3.422042393E0
1.354110888E1,2.619250896E0,-5.890204382E-1,-1.898775110E0,3.288277246E0
1.355109888E1,2.354759113E0,-5.894063544E-1,-2.184044389E0,3.265323908E0
1.356108887E1,2.103729959E0,-5.502422887E-1,-2.380873947E0,3.224439031E0
1.357107888E1,1.937536156E0,-4.842918357E-1,-2.437871436E0,3.151476174E0
1.358106888E1,1.910973132E0,-3.025627121E-1,-2.406691158E0,3.087964514E0
1.359105888E1,1.996619347E0,-9.872146547E-2,-2.268929588E0,3.023950433E0
1.360104788E1,2.073686818E0,1.034313977E-2,-2.125373427E0,2.969426915E0
1.361103787E1,2.077730314E0,6.883020669E-2,-1.915291740E0,2.826666465E0
1.362102788E1,1.956805801E0,8.041149437E-2,-1.646036814E0,2.558318226E0
1.363101788E1,1.819616235E0,-1.039342582E-3,-1.387539597E0,2.288289854E0
1.364100788E1,1.726509705E0,-1.729404661E-1,-1.151421427E0,2.082430183E0
1.365099788E1,1.604702555E0,-4.076222670E-1,-9.983243644E-1,1.933359185E0
1.366098788E1,1.442533829E0,-5.765144134E-1,-8.920073658E-1,1.791354197E0
1.367097788E1,1.278311562E0,-6.486839649E-1,-8.333059984E-1,1.658092344E0
1.368096788E1,1.069098186E0,-6.515648881E-1,-7.882017463E-1,1.479449129E0
1.369095788E1,8.703614120E-1,-6.704587036E-1,-7.152524686E-1,1.310965276E0
1.370094788E1,6.892219801E-1,-6.989016071E-1,-6.480404788E-1,1.176200177E0
1.371093788E1,5.313797557E-1,-7.240390795E-1,-6.078537351E-1,1.084473696E0
1.372092788E1,3.900569388E-1,-7.419181108E-1,-5.321077341E-1,9.928371162E-1
1.373091788E1,2.688954677E-1,-7.566396457E-1,-5.228106612E-1,9.581958638E-1
1.374090688E1,1.449947222E-1,-7.694441709E-1,-5.102882642E-1,9.345918436E-1
1.375089688E1,3.981500700E-2,-7.616536331E-1,-5.078616697E-1,9.163105189E-1
1.376088688E1,-2.002159730E-2,-7.192367613E-1,-4.684204459E-1,8.585569855E-1
1.377087687E1,-5.288558051E-2,-6.356797573E-1,-4.192968178E-1,7.633449154E-1
1.378086688E1,-6.835409716E-2,-4.947106969E-1,-4.410016823E-1,6.662532852E-1
1.379085688E1,-7.979139715E-2,-3.735025942E-1,-5.004690349E-1,6.295554859E-1
1.380084688E1,-8.431538790E-2,-2.137800515E-1,-5.861056012E-1,6.295480687E-1
1.381083687E1,-4.902978033E-2,-8.729103595E-2,-6.881523782E-1,6.953972533E-1
1.382082688E1,1.789876565E-2,3.023536742E-2,-7.719611049E-1,7.727603061E-1
1.383081688E1,6.317609534E-2,1.641538551E-1,-8.825255209E-1,8.998827714E-1
1.384080688E1,1.015573651E-1,2.570079321E-1,-9.874947363E-1,1.025432996E0
1.385079688E1,2.076890069E-1,3.114890715E-1,-1.078202008E0,1.141349962E0
1.386078688E1,3.473570618E-1,3.698919386E-1,-1.155578797E0,1.262077387E0
1.387077688E1,4.601614000E-1,4.684871042E-1,-1.213141712E0,1.379471455E0
1.388076688E1,5.904296172E-1,5.657941282E-1,-1.304575208E0,1.539690424E0
1.389075587E1,7.162220831E-1,5.766909993E-1,-1.337787393E0,1.623336591E0
1.390074588E1,9.624074037E-1,5.564632876E-1,-1.295977462E0,1.707465075E0
1.391073588E1,1.194960526E0,5.629152516E-1,-1.271751863E0,1.833618564E0
1.392072588E1,1.357246780E0,5.254487787E-1,-1.298767169E0,1.950643842E0
1.393071587E1,1.495922124E0,4.637226467E-1,-1.312191791E0,2.043200673E0
1.394070588E1,1.634671143E0,4.159080639E-1,-1.340659545E0,2.154645511E0
1.395069588E1,1.798944135E0,3.931071389E-1,-1.329081473E0,2.270944910E0
1.396068588E1,1.935133827E0,4.191208166E-1,-1.310605441E0,2.374466637E0
1.397067587E1,2.145696156E0,5.041121426E-1,-1.226603757E0,2.522438864E0
1.398066588E1,2.421081448E0,5.597878683E-1,-1.102959119E0,2.718734385E0
1.399065588E1,2.635862836E0,5.821075675E-1,-9.733807272E-1,2.869510786E0
1.400064588E1,2.934046276E0,6.508041653E-1,-7.456585747E-1,3.096478697E0
1.401063587E1,3.228524335E0,7.269331589E-1,-5.345957243E-1,3.352252047E0
1.402062588E1,3.526765662E0,7.997488278E-1,-2.480482435E-1,3.624803740E0
1.403061588E1,3.854859949E0,9.354232344E-1,8.515709460E-2,3.967645850E0
1.404060488E1,4.153470236E0,1.154720134E0,3.848438537E-1,4.328140291E0
1.405059488E1,4.437877636E0,1.391882324E0,5.728581494E-1,4.686177629E0
1.406058488E1,4.703703169E0,1.530075126E0,7.349909145E-1,5.000616466E0
1.407057488E1,4.843960331E0,1.582728426E0,9.097688681E-1,5.176549078E0
1.408056488E1,4.845970604E0,1.639194110E0,1.112570187E0,5.235284218E0
1.409055487E1,4.650773588E0,1.696358245E0,1.352416542E0,5.131896021E0
1.410054488E1,4.298710980E0,1.639145286E0,1.629624265E0,4.880715993E0
1.411053488E1,3.971764209E0,1.416674810E0,1.848946892E0,4.604398230E0
1.412052550E1,3.591487908E0,1.113054045E0,2.130982077E0,4.321893024E0
1.413051550E1,3.208794075E0,9.122469181E-1,2.421883394E0,4.122386812E0
1.414050550E1,2.919253989E0,9.025390783E-1,2.574079401E0,3.995310427E0
1.415049550E1,2.700741786E0,9.493983722E-1,2.605882407E0,3.871173799E0
1.416048550E1,2.613812985E0,9.461862043E-1,2.556810234E0,3.776845937E0
1.417047550E1,2.609139306E0,8.526257837E-1,2.282357134E0,3.569836513E0
1.418046550E1,2.520794017E0,6.968986434E-1,1.946899449E0,3.260442862E0
1.419045450E1,2.253126026E0,5.388674077E-1,1.616347577E0,2.824806978E0
1.420044450E1,1.826260280E0,3.234884351E-1,1.278408333E0,2.252598332E0
1.421043450E1,1.329221222E0,4.978407115E-2,1.082890890E0,1.715214328E0
1.422042450E1,8.543996827E-1,-3.179128227E-1,9.511297327E-1,1.317465426E0
1.423041450E1,3.615419684E-1,-7.335741341E-1,9.099589026E-1,1.223465900E0
1.424040450E1,-9.629633278E-2,-1.107322311E0,9.238460398E-1,1.445312143E0
1.425039450E1,-5.335534582E-1,-1.455849109E0,9.804646289E-1,1.834526317E0
1.426038450E1,-8.968216708E-1,-1.701679796E0,1.017109714E0,2.175894163E0
1.427037450E1,-1.224637046E0,-1.800885703E0,1.139438728E0,2.457894592E0
1.428036450E1,-1.433500904E0,-1.800167665E0,1.302223458E0,2.644109377E0
1.429035450E1,-1.471447434E0,-1.754653523E0,1.483846747E0,2.728693406E0
1.430034450E1,-1.428410465E0,-1.687084853E0,1.738377798E0,2.812217830E0
1.431033450E1,-1.317140290E0,-1.579690797E0,2.048104811E0,2.902587617E0
1.432032450E1,-1.212067432E0,-1.444877101E0,2.271553234E0,2.952411115E0
1.433031350E1,-1.186092639E0,-1.347457518E0,2.307901865E0,2.923844820E0
1.434030350E1,-1.275793312E0,-1.340047634E0,2.097661133E0,2.797062471E0
1.435029350E1,-1.432068775E0,-1.406281385E0,1.572646657E0,2.549836429E0
1.436028350E1,-1.634157757E0,-1.496304824E0,8.449577451E-1,2.371361064E0
1.437027350E1,-1.869044503E0,-1.505759187E0,6.857146740E-2,2.401112270E0
1.438026350E1,-2.035614428E0,-1.405327119E0,-7.424917227E-1,2.582627416E0
1.439025350E1,-2.082113387E0,-1.337421942E0,-1.563727899E0,2.927309097E0
1.440024350E1,-2.099493358E0,-1.291192685E0,-2.283389168E0,3.359898362E0
1.441023350E1,-2.104053894E0,-1.180152306E0,-2.781792966E0,3.682142632E0
1.442022350E1,-2.004026307E0,-1.067756250E0,-3.123016006E0,3.861276191E0
1.443021350E1,-1.945260474E0,-9.599356395E-1,-3.380936689E0,4.016994852E0
1.444020350E1,-1.929020125E0,-8.581490636E-1,-3.489745771E0,4.078708619E0
1.445019350E1,-1.940236839E0,-7.564791396E-1,-3.492472327E0,4.066219699E0
1.446018350E1,-1.916495974E0,-6.680560827E-1,-3.385782861E0,3.947503177E0
1.447017350E1,-1.870219940E0,-6.336765012E-1,-3.271658075E0,3.821389158E0
1.448016250E1,-1.832255284E0,-6.603129074E-1,-3.171146193E0,3.721470239E0
1.449015250E1,-1.736099284E0,-6.267276701E-1,-3.053785558E0,3.568253709E0
1.450014250E1,-1.583471607E0,-5.143535408E-1,-2.850610017E0,3.301199685E0
1.451013250E1,-1.399788636E0,-3.834370136E-1,-2.691417816E0,3.057803465E0
1.452012250E1,-1.198747329E0,-2.617152330E-1,-2.561526598E0,2.840230367E0
1.453011250E1,-9.990447414E-1,-1.232923427E-1,-2.377748026E0,2.582049006E0
1.454010250E1,-7.298143744E-1,4.081648886E-3,-2.175779935E0,2.294921350E0
1.455009250E1,-4.448817484E-1,9.268772364E-2,-1.860074143E0,1.914781085E0
1.456008250E1,-1.387798628E-1,1.382208690E-1,-1.533042880E0,1.545504879E0
1.457007250E1,1.730144334E-1,1.717368168E-1,-1.201311041E0,1.225795964E0
1.458006250E1,5.076586251E-1,1.800001019E-1,-7.958738780E-1,9.610060073E-1
1.459005250E1,8.410930279E-1,1.959287944E-1,-5.014554602E-1,9.986406524E-1
1.460004250E1,1.210614253E0,1.952923250E-1,-3.287520987E-1,1.269568393E0
1.461003250E1,1.551797240E0,1.519530550E-1,-9.842442691E-2,1.562322557E0
1.462002250E1,1.880631053E0,8.481737137E-2,1.498758316E-1,1.888499380E0
1.463001150E1,2.204163635E0,4.484463573E-2,3.678892672E-1,2.235104222E0
1.464000150E1,2.486023549E0,-3.431409270E-2,6.090272713E-1,2.559766544E0
1.464999150E1,2.785595995E0,-1.138066971E-1,8.657656467E-1,2.919254557E0
1.465998150E1,3.059196571E0,-1.763549477E-1,1.169288764E0,3.279789771E0
1.466997150E1,3.191114434E0,-2.522097069E-1,1.418760220E0,3.501385673E0
1.467996150E1,3.164318399E0,-3.804786149E-1,1.561665586E0,3.549151209E0
1.468995150E1,2.977094939E0,-5.444202161E-1,1.641541475E0,3.442985051E0
1.469994150E1,2.657148747E0,-6.858947682E-1,1.626439286E0,3.190015023E0
1.470993150E1,2.332107438E0,-7.955812249E-1,1.632725043E0,2.955920441E0
1.471992150E1,2.085063600E0,-7.997806951E-1,1.783097304E0,2.857722059E0
1.472991150E1,1.999971555E0,-7.774367300E-1,2.070930002E0,2.982120917E0
1.473990150E1,1.967510445E0,-7.563769595E-1,2.597891017E0,3.345480712E0
1.474989150E1,1.997959528E0,-6.279297115E-1,3.202021830E0,3.826105304E0
1.475988150E1,1.991403338E0,-4.088330792E-1,3.797788786E0,4.307671227E0
1.476987150E1,2.007370476E0,-2.101844524E-1,4.343457967E0,4.789503194E0
1.477986050E1,1.994606881E0,-1.498461570E-1,4.715842574E0,5.122507361E0
1.478985050E1,1.978427343E0,-1.660176551E-1,5.045605656E0,5.422164978E0
1.479984050E1,1.992152659E0,-2.398542479E-1,5.229715181E0,5.601439382E0
1.480983050E1,2.031002290E0,-4.018649523E-1,5.219702994E0,5.615315226E0
1.481982050E1,2.204390945E0,-6.544503428E-1,5.011765480E0,5.514112614E0
1.482981050E1,2.447292762E0,-9.453962454E-1,4.643105550E0,5.333052135E0
1.483980050E1,2.627629371E0,-1.160413714E0,4.099514469E0,5.005698251E0
1.484979050E1,2.739487191E0,-1.297951043E0,3.462280229E0,4.601831306E0
1.485978050E1,2.786336545E0,-1.447593717E0,2.774230177E0,4.189934604E0
1.486977050E1,2.728809591E0,-1.685034235E0,2.075820614E0,3.820310638E0
1.487976050E1,2.675490001E0,-1.957102986E0,1.347656908E0,3.578362473E0
1.488975050E1,2.616029957E0,-2.186204935E0,6.284686786E-1,3.466709915E0
1.489974050E1,2.487447346E0,-2.330393765E0,-5.753075480E-2,3.409023201E0
1.490973050E1,2.254928138E0,-2.402502798E0,-7.331578124E-1,3.375535658E0
1.491972050E1,1.959116036E0,-2.381189404E0,-1.414796392E0,3.392616609E0
1.492970950E1,1.616582050E0,-2.368262088E0,-2.070583847E0,3.536851751E0
1.493969950E1,1.200199485E0,-2.330069829E0,-2.674831604E0,3.744920336E0
1.494968950E1,7.986878505E-1,-2.282527873E0,-3.248765057E0,4.049976564E0
1.495967950E1,4.723051898E-1,-2.195868921E0,-3.789621395E0,4.405240382E0
1.496966950E1,1.790614776E-1,-2.083895618E0,-4.199777260E0,4.691781431E0
1.497965950E1,-8.900353923E-2,-2.012428902E0,-4.553161924E0,4.978862845E0
1.498964950E1,-3.018543220E-1,-1.906119797E0,-4.825330517E0,5.196943651E0
1.499963950E1,-4.983883032E-1,-1.770574906E0,-4.995103254E0,5.323005065E0
1.500962950E1,-6.552629596E-1,-1.639913903E0,-5.117142831E0,5.413301941E0
1.501961950E1,-7.798544075E-1,-1.529065604E0,-5.204945791E0,5.480663756E0
1.502960950E1,-8.801699701E-1,-1.428718028E0,-5.223493159E0,5.486420979E0
1.503959950E1,-9.943424106E-1,-1.279955799E0,-5.147457721E0,5.396603067E0
1.504958950E1,-1.139318129E0,-1.129939342E0,-5.040296384E0,5.289555402E0
1.505957950E1,-1.240033788E0,-1.020963029E0,-4.944210843E0,5.198583477E0
1.506956850E1,-1.296360601E0,-9.633094829E-1,-4.826579483E0,5.089635102E0
1.507955850E1,-1.301303837E0,-8.923608300E-1,-4.613027472E0,4.875420186E0
1.508954850E1,-1.333770209E0,-7.673944294E-1,-4.369987954E0,4.632993838E0
1.509953850E1,-1.340868875E0,-5.810775805E-1,-4.137578089E0,4.388067107E0
1.510952850E1,-1.297811733E0,-3.677650139E-1,-3.898418782E0,4.125195196E0
1.511951788E1,-1.241453784E0,-1.850918573E-1,-3.628908334E0,3.839849240E0
1.512950788E1,-1.146355546E0,-6.189160824E-2,-3.395602675E0,3.584421730E0
1.513949788E1,-1.086169424E0,5.923463345E-2,-3.217596474E0,3.396498171E0
1.514948787E1,-1.028801660E0,1.841232660E-1,-2.991588725E0,3.168901597E0
1.515947788E1,-9.753586940E-1,3.438197887E-1,-2.674797691E0,2.867765561E0
1.516946788E1,-8.660666321E-1,5.012394056E-1,-2.224101325E0,2.438839694E0
1.517945788E1,-8.219117486E-1,6.619159216E-1,-1.703242464E0,2.003673252E0
1.518944788E1,-7.204622646E-1,8.214905298E-1,-1.094927968E0,1.546861281E0
1.519943788E1,-6.306765141E-1,9.290151246E-1,-4.256053787E-1,1.200817182E0
1.520942788E1,-4.750709228E-1,1.026487771E0,2.836437535E-1,1.166114619E0
1.521941688E1,-1.150049378E-1,1.092070873E0,1.215747816E0,1.638257513E0
1.522940687E1,4.742059004E-1,1.218568659E0,2.506665682E0,2.827216591E0
1.523939688E1,1.128091402E0,1.433849252E0,3.892369838E0,4.298727352E0
1.524938688E1,1.771359018E0,1.655852243E0,5.126984280E0,5.671466056E0
1.525937688E1,2.262889999E0,1.759856522E0,5.969604893E0,6.622231399E0
1.526936687E1,2.504241134E0,1.681451792E0,6.399634860E0,7.074873152E0
1.527935688E1,2.605590046E0,1.563621041E0,6.421829721E0,7.104499082E0
1.528934688E1,2.629930543E0,1.470239399E0,6.153217989E0,6.851294051E0
1.529933688E1,2.706192268E0,1.309928188E0,5.735658964E0,6.475891614E0
1.530932687E1,2.898711844E0,1.092082713E0,5.394245889E0,6.220374886E0
1.531931688E1,3.057790023E0,9.333796325E-1,5.389268739E0,6.266218549E0
1.532930688E1,3.023411319E0,8.941673273E-1,5.446681380E0,6.293400454E0
1.533929688E1,2.882647496E0,7.989543374E-1,5.329775074E0,6.111831719E0
1.534928687E1,2.750613273E0,4.881075825E-1,5.256750367E0,5.952944382E0
1.535927688E1,2.726027778E0,4.101456329E-2,4.962595074E0,5.662177983E0
1.536926588E1,2.837549676E0,-5.502026738E-1,4.196283549E0,5.095410363E0
1.537925588E1,2.940365362E0,-1.031106633E0,3.355405991E0,4.579047795E0
1.538924588E1,3.027159677E0,-1.355119417E0,2.567501868E0,4.194294957E0
1.539923588E1,3.122908710E0,-1.604335057E0,1.822257276E0,3.955637922E0
1.540922588E1,3.193571434E0,-1.812944562E0,1.242531572E0,3.876796512E0
1.541921588E1,3.169016052E0,-1.997172639E0,7.816932106E-1,3.826539633E0
1.542920587E1,3.088894579E0,-2.043818218E0,4.545537740E-1,3.731632587E0
1.543919588E1,2.942244364E0,-1.996131835E0,3.120062578E-1,3.569130441E0
1.544918588E1,2.711588664E0,-1.942678636E0,3.553569299E-1,3.354547944E0
1.545917588E1,2.371986618E0,-1.863925412E0,5.742076868E-1,3.070871688E0
1.546916587E1,2.081249753E0,-1.826072292E0,8.365126115E-1,2.892385503E0
1.547915588E1,1.813140005E0,-1.886957887E0,9.448001218E-1,2.782217464E0
1.548914588E1,1.534539183E0,-1.947735893E0,1.021782809E0,2.681888462E0
1.549913588E1,1.299856066E0,-1.937699147E0,8.502266711E-1,2.483382606E0
1.550912587E1,1.102923597E0,-1.881119442E0,4.633702058E-1,2.229296473E0
1.551911488E1,1.055857677E0,-1.824528335E0,-1.318570518E-1,2.112137628E0
1.552910488E1,1.004223620E0,-1.797424151E0,-8.684775853E-1,2.234603315E0
1.553909488E1,8.659700800E-1,-1.699880607E0,-1.584334656E0,2.479841640E0
1.554908488E1,7.958246883E-1,-1.598085553E0,-2.244968868E0,2.868292103E0
1.555907488E1,7.165860723E-1,-1.532181585E0,-2.852226187E0,3.316062459E0
1.556906488E1,6.976889677E-1,-1.524160083E0,-3.348372375E0,3.744520185E0
1.557905488E1,6.884557025E-1,-1.536319952E0,-3.716428873E0,4.079962478E0
1.558904488E1,6.629806264E-1,-1.532838812E0,-4.006767688E0,4.340889937E0
1.559903488E1,6.579238813E-1,-1.532717775E0,-4.207702577E0,4.526240005E0
1.560902488E1,6.495401435E-1,-1.486389408E0,-4.322742451E0,4.617072468E0
1.561901488E1,6.193324772E-1,-1.397254453E0,-4.367519259E0,4.627214843E0
1.562900487E1,6.007134077E-1,-1.282000862E0,-4.365479751E0,4.589313267E0
1.563899488E1,5.891316815E-1,-1.196382130E0,-4.266327930E0,4.469894892E0
1.564898488E1,5.909628101E-1,-1.130445126E0,-4.087538787E0,4.281952423E0
1.565897488E1,6.410259397E-1,-1.087068726E0,-3.881125642E0,4.081147990E0
1.566896388E1,6.430966580E-1,-1.099219825E0,-3.712732263E0,3.925078138E0
1.567895387E1,5.868859121E-1,-1.106614506E0,-3.574334516E0,3.787465904E0
1.568894388E1,5.444288407E-1,-1.162765025E0,-3.426847272E0,3.659468198E0
1.569893388E1,5.700297050E-1,-1.218534599E0,-3.317021359E0,3.579440058E0
1.570892388E1,6.199763288E-1,-1.266109592E0,-3.219517284E0,3.514640193E0
1.571891387E1,6.108890247E-1,-1.263593535E0,-3.082582510E0,3.387059042E0
1.572890388E1,6.277383614E-1,-1.228033108E0,-2.846759625E0,3.163251670E0
1.573889388E1,7.125025231E-1,-1.193266441E0,-2.554476026E0,2.908073660E0
1.574888388E1,9.209236014E-1,-1.206568272E0,-2.160861933E0,2.640687708E0
1.575887388E1,1.229078591E0,-1.231476534E0,-1.544015180E0,2.326188194E0
1.576886388E1,1.525631242E0,-1.171485271E0,-6.388913405E-1,2.026847446E0
1.577885388E1,1.842300947E0,-9.448708731E-1,5.277954125E-1,2.136684755E0
1.578884388E1,2.245082012E0,-6.633727553E-1,1.685938799E0,2.884934364E0
1.579883388E1,2.502507142E0,-5.418544579E-1,2.622464526E0,3.665169633E0
1.580882388E1,2.500175858E0,-6.348528148E-1,3.286480767E0,4.177902973E0
1.581881288E1,2.172002633E0,-7.820381963E-1,3.633215393E0,4.304582822E0
1.582880288E1,1.716368294E0,-8.912380184E-1,3.664810823E0,4.143798220E0
1.583879287E1,1.338313788E0,-1.039974228E0,3.496723253E0,3.885833720E0
1.584878288E1,1.132639732E0,-1.227022710E0,3.379949679E0,3.769949247E0
1.585877288E1,1.102867318E0,-1.256844679E0,3.370797617E0,3.762745200E0
1.586876288E1,1.221071560E0,-1.124382440E0,3.457350442E0,3.835169319E0
1.587875287E1,1.443143109E0,-8.116571210E-1,3.801547376E0,4.146469796E0
1.588874288E1,1.667336467E0,-4.257100439E-1,4.355573983E0,4.683189581E0
1.589873288E1,1.851232861E0,-1.148064248E-1,4.789112864E0,5.135741976E0
1.590872288E1,1.877779074E0,-5.293469712E-2,5.022650072E0,5.362450007E0
1.591871287E1,1.680723813E0,-2.771581681E-1,5.083704359E0,5.361501580E0
1.592870288E1,1.390136930E0,-6.196040073E-1,4.876546279E0,5.108531435E0
1.593869288E1,1.153000175E0,-9.370278566E-1,4.451322139E0,4.692728353E0
1.594868288E1,1.006129374E0,-1.187371717E0,4.044563506E0,4.333663792E0
1.595867288E1,1.032061191E0,-1.306766013E0,3.717421145E0,4.073328821E0
1.596866288E1,1.218726826E0,-1.281214266E0,3.467269074E0,3.892140786E0
1.597865188E1,1.466354363E0,-1.196401572E0,3.324861891E0,3.825738939E0
1.598864188E1,1.740290569E0,-1.105683191E0,3.117189256E0,3.737380826E0
1.599863187E1,1.940265929E0,-9.945757145E-1,2.779439462E0,3.532576460E0
1.600862188E1,1.909206689E0,-8.951755334E-1,2.249151966E0,3.083033244E0
1.601861188E1,1.750331846E0,-7.565358576E-1,1.505551026E0,2.429545630E0
1.602860188E1,1.492380466E0,-6.354857759E-1,6.638320541E-1,1.752630772E0
1.603859187E1,1.165544061E0,-5.544733340E-1,-2.298487848E-1,1.311016438E0
1.604858188E1,7.980794477E-1,-4.713861537E-1,-1.153159220E0,1.479497177E0
1.605857188E1,5.071801767E-1,-4.052266628E-1,-2.082740793E0,2.181570442E0
1.606856188E1,2.630897672E-1,-3.356369027E-1,-2.917741315E0,2.948742569E0
1.607855187E1,1.008739717E-1,-2.905421524E-1,-3.629032295E0,3.642041419E0
1.608854188E1,-1.296737015E-2,-2.256956537E-1,-4.255313530E0,4.261314342E0
1.609853188E1,-9.522307634E-2,-1.390060039E-1,-4.738157887E0,4.741152842E0
1.610852188E1,-1.386747591E-1,-6.105107099E-2,-5.121827620E0,5.124068315E0
1.611851187E1,-1.906683469E-1,7.604362428E-2,-5.280771899E0,5.284760060E0
1.612850063E1,-2.820753841E-1,2.678932549E-1,-5.325176239E0,5.339366563E0
1.613849063E1,-2.958330055E-1,3.961485681E-1,-5.240676371E0,5.263947158E0
1.614848063E1,-3.519520962E-1,4.267945562E-1,-5.063604555E0,5.093732910E0
1.615847063E1,-4.868912154E-1,3.739737336E-1,-4.899191961E0,4.937509623E0
1.616846063E1,-6.387208942E-1,3.537903146E-1,-4.702223239E0,4.758574929E0
1.617845063E1,-7.367784083E-1,3.653936756E-1,-4.526808524E0,4.600907559E0
1.618844063E1,-7.311662507E-1,3.400034572E-1,-4.412675552E0,4.485745419E0
1.619843063E1,-6.673868689E-1,3.449363145E-1,-4.214253212E0,4.280691116E0
1.620842063E1,-5.427957134E-1,3.733995371E-1,-3.897952175E0,3.953237351E0
1.621841063E1,-3.386460992E-1,4.601216389E-1,-3.586045319E0,3.631268943E0
1.622840063E1,-8.130904198E-2,5.559868857E-1,-3.279782782E0,3.327567831E0
1.623839062E1,2.241691650E-1,6.324092634E-1,-2.876493301E0,2.953710718E0
1.624838063E1,4.356795466E-1,6.766080742E-1,-2.423378527E0,2.553503209E0
1.625837063E1,6.024229874E-1,7.511869709E-1,-1.982134770E0,2.203645518E0
1.626836063E1,7.677651429E-1,8.178518075E-1,-1.540725537E0,1.905827923E0
1.627834963E1,9.062237743E-1,8.652705337E-1,-1.189634736E0,1.727763129E0
1.628833962E1,1.117238020E0,8.381960249E-1,-8.366184461E-1,1.628104356E0
1.629832963E1,1.309902314E0,7.923680337E-1,-4.835115248E-1,1.605451515E0
1.630831963E1,1.512241995E0,8.370354988E-1,-6.686524987E-2,1.729732708E0
1.631830963E1,1.783554117E0,9.324866165E-1,3.950764811E-1,2.051019748E0
1.632829962E1,2.114682524E0,9.821348861E-1,8.611937088E-1,2.485583577E0
1.633828963E1,2.518489337E0,1.010145534E0,1.443857054E0,3.073744578E0
1.634827963E1,2.991382318E0,1.085461472E0,2.150125861E0,3.840525485E0
1.635826963E1,3.503541107E0,1.285852569E0,2.927713156E0,4.743387128E0
1.636825963E1,3.945324562E0,1.524072082E0,3.611400601E0,5.561528199E0
1.637824963E1,4.287526426E0,1.705544805E0,4.151595619E0,6.207053417E0
1.638823963E1,4.516892815E0,1.833210427E0,4.503651211E0,6.636705161E0
1.639822963E1,4.606680905E0,1.881580056E0,4.640125224E0,6.803867618E0
