"Time (s)","Linear Acceleration x (m/s^2)","Linear Acceleration y (m/s^2)","Linear Acceleration z (m/s^2)","Absolute acceleration (m/s^2)"
4.540267600E-2,0.000000000E0,0.000000000E0,0.000000000E0,0.000000000E0
5.014423800E-2,2.216982841E-2,4.665851593E-3,1.089339256E-1,1.112648714E-1
5.488580100E-2,-9.235727787E-2,1.296520233E-2,1.333975792E-1,1.627663275E-1
5.962736300E-2,5.865836143E-2,-6.495571136E-2,1.613240242E-1,1.835360689E-1
6.436887400E-2,-6.628668308E-2,-1.633024216E-2,2.387819290E-1,2.483493724E-1
6.911043600E-2,-2.339494228E-1,1.152944565E-2,2.800254822E-1,3.650746927E-1
7.385199900E-2,-6.035746336E-1,-4.681062698E-2,3.038764000E-1,6.773731908E-1
7.859356100E-2,-6.629596949E-1,-4.516744614E-2,3.052334785E-1,7.312476541E-1
8.333512400E-2,-8.224122524E-1,-7.948923111E-2,3.319730759E-1,8.904417858E-1
8.807663400E-2,-1.041923523E0,-6.723403931E-2,2.712187767E-1,1.078742170E0
9.281819700E-2,-1.140808344E0,-3.828382492E-2,1.264786720E-1,1.148436408E0
9.755975900E-2,-1.224133849E0,-5.483675003E-2,1.128196716E-2,1.225413413E0
1.023013220E-1,-1.282226562E0,-6.045007706E-2,-6.765794754E-2,1.285432521E0
1.070428840E-1,-1.267783403E0,-5.135822296E-2,-1.186060905E-1,1.274354672E0
1.117843950E-1,-1.217954397E0,-3.041553497E-2,-1.844000816E-1,1.232209969E0
1.165259570E-1,-1.106761694E0,-5.639028549E-2,-1.660399437E-1,1.120567077E0
1.212675200E-1,-9.539527893E-1,-9.489631653E-2,-1.382803917E-1,9.685828317E-1
1.260090820E-1,-7.620470524E-1,-7.960081100E-2,-1.467652321E-1,7.801230880E-1
1.307506450E-1,-5.717980862E-1,-2.881765366E-2,-2.032818794E-1,6.075417936E-1
1.354922070E-1,-4.016611576E-1,8.335113525E-3,-1.509466171E-1,4.291690120E-1
1.402337170E-1,-2.764565945E-1,9.828567505E-3,-3.313255310E-2,2.786083549E-1
1.449752800E-1,-1.677968502E-1,-4.101371765E-2,1.159625053E-1,2.080509808E-1
1.497168420E-1,-3.728127480E-2,-1.238756180E-1,2.660799026E-1,2.958607388E-1
1.544584050E-1,7.847523689E-2,-2.147889137E-1,4.224829674E-1,4.804003518E-1
1.591999670E-1,2.497739792E-1,-3.090872765E-1,5.165505409E-1,6.517257448E-1
1.639414780E-1,4.361290932E-1,-3.723134995E-1,5.785641670E-1,8.145934097E-1
1.686830400E-1,6.167199612E-1,-4.562587738E-1,6.096038818E-1,9.798634966E-1
1.734246030E-1,7.599844933E-1,-5.346817970E-1,6.128635406E-1,1.113131966E0
1.781661650E-1,9.115341902E-1,-6.260614395E-1,5.681557655E-1,1.243241119E0
1.829077280E-1,9.279632568E-1,-7.319836617E-1,4.533834457E-1,1.265888003E0
1.876492380E-1,9.177554846E-1,-8.191022873E-1,3.186058998E-1,1.270713739E0
1.923908010E-1,9.090738297E-1,-8.669443130E-1,1.637735367E-1,1.266818630E0
1.971323630E-1,7.896871567E-1,-8.232312202E-1,7.249021530E-2,1.143053052E0
2.018739260E-1,6.616770029E-1,-7.486457825E-1,8.901739120E-2,1.003100723E0
2.066154880E-1,4.316251278E-1,-6.347126961E-1,1.963958740E-1,7.922952712E-1
2.113570510E-1,2.133920193E-1,-5.454401970E-1,3.459520340E-1,6.802381731E-1
2.160985610E-1,-7.091164589E-2,-3.754200935E-1,5.579051971E-1,6.761855641E-1
2.208401240E-1,-6.276233196E-1,-6.075572968E-1,1.036751747E0,1.355688418E0
2.255816860E-1,-1.215267897E0,-1.022843838E0,1.690769672E0,2.319868027E0
2.303232490E-1,-1.603538513E0,-1.148738861E0,2.026627541E0,2.828101116E0
2.350648110E-1,-1.859454870E0,-1.089028835E0,2.410155296E0,3.233017905E0
2.398063220E-1,-1.949756145E0,-1.024401665E0,2.918267250E0,3.656122473E0
2.445478840E-1,-1.747658014E0,-8.879189491E-1,3.296472549E0,3.835288759E0
2.492894470E-1,-1.493645668E0,-8.898863792E-1,3.662941933E0,4.054629299E0
2.540310090E-1,-1.254211903E0,-9.271855354E-1,3.859322548E0,4.162582257E0
2.587725720E-1,-8.673696518E-1,-8.913440704E-1,3.711210251E0,3.914065136E0
2.635141340E-1,-3.290038109E-1,-7.624378204E-1,3.363510132E0,3.464499292E0
2.682556450E-1,2.786953449E-1,-6.165719032E-1,2.894462585E0,2.972498220E0
2.729972070E-1,8.265516758E-1,-4.459357262E-1,2.293853760E0,2.478671300E0
2.777387700E-1,1.282092094E0,-2.617802620E-1,1.774719238E0,2.204975605E0
2.824803320E-1,1.625355721E0,-6.115913391E-2,1.344374657E0,2.110181242E0
2.872218950E-1,1.857561111E0,1.210222244E-1,9.139509201E-1,2.073761304E0
2.919634050E-1,2.021759987E0,3.111767769E-1,6.947450638E-1,2.160327553E0
2.967049670E-1,2.120052576E0,4.764742851E-1,4.995784760E-1,2.229625377E0
3.014465300E-1,2.135574818E0,5.870456696E-1,3.421058655E-1,2.241057528E0
3.061880920E-1,2.129453659E0,6.631474495E-1,1.768589020E-1,2.237323512E0
3.109296550E-1,2.262485027E0,8.023624420E-1,7.893562317E-2,2.401844046E0
3.156712170E-1,2.315722466E0,8.747038841E-1,3.968715668E-2,2.475732718E0
3.204127280E-1,1.861418009E0,6.152052879E-1,1.921186447E-1,1.969838603E0
3.251542900E-1,1.486010313E0,4.817085266E-1,6.640529633E-2,1.563547063E0
3.298958530E-1,1.389795065E0,4.331622124E-1,-2.633094788E-1,1.479355166E0
3.346374150E-1,1.367185593E0,3.890132904E-1,-5.286426544E-1,1.516572069E0
3.393789780E-1,1.229997754E0,2.057652473E-1,-5.663213730E-1,1.369654595E0
3.441204880E-1,1.014261961E0,-6.741714478E-2,-4.084815979E-1,1.095504273E0
3.488620510E-1,7.531092167E-1,-3.683013916E-1,-2.040195465E-2,8.385914661E-1
3.536036130E-1,7.059273720E-1,-6.002373695E-1,4.084262848E-1,1.012635366E0
3.583451760E-1,8.619129658E-1,-8.211245537E-1,9.223918915E-1,1.505970217E0
3.630867380E-1,9.911897182E-1,-1.100058079E0,1.355526924E0,2.007495474E0
3.678283010E-1,1.003721714E0,-1.365988731E0,1.657389641E0,2.370722024E0
3.725698110E-1,1.091219425E0,-1.546700478E0,1.832479477E0,2.634582175E0
3.773113740E-1,1.143319964E0,-1.653632641E0,1.949041367E0,2.800079231E0
3.820529360E-1,1.160170913E0,-1.726098061E0,1.996382713E0,2.882872699E0
3.867944990E-1,1.291203737E0,-1.745981455E0,1.852976799E0,2.854677101E0
3.915360610E-1,1.424174666E0,-1.763673544E0,1.585301399E0,2.766224571E0
3.962776240E-1,1.609136224E0,-1.710876465E0,1.266076088E0,2.668214070E0
4.010191340E-1,1.746936440E0,-1.664317608E0,9.246120453E-1,2.583920947E0
4.057606970E-1,1.806209803E0,-1.687838554E0,5.520725250E-1,2.532977874E0
4.105022590E-1,1.864639401E0,-1.669575214E0,1.443843842E-1,2.507031780E0
4.152438220E-1,1.805119634E0,-1.601019382E0,-1.581220627E-1,2.417999698E0
4.199853840E-1,1.679575682E0,-1.499782562E0,-4.911470413E-1,2.304679505E0
4.247268950E-1,1.610014558E0,-1.413765907E0,-8.801622391E-1,2.316369246E0
4.294684570E-1,1.551416159E0,-1.361678839E0,-1.341041565E0,2.461595791E0
4.342100200E-1,1.451869965E0,-1.329024315E0,-1.785456657E0,2.657458842E0
4.389515820E-1,1.418790936E0,-1.261110783E0,-2.147444725E0,2.866162412E0
4.436931450E-1,1.553796172E0,-1.198317051E0,-2.496706963E0,3.175498694E0
4.484347070E-1,1.714118838E0,-1.092795372E0,-2.887940884E0,3.531657920E0
4.531762170E-1,1.803291798E0,-9.849491119E-1,-3.301858425E0,3.888991530E0
4.579177800E-1,1.770448327E0,-1.009387970E0,-3.681637764E0,4.208064636E0
4.626593420E-1,1.703998089E0,-9.897117615E-1,-3.831300735E0,4.308364444E0
4.674009050E-1,1.419258833E0,-8.982658386E-1,-3.696581364E0,4.060282124E0
4.721424670E-1,1.136876702E0,-8.631486893E-1,-3.735393524E0,3.998834715E0
4.768840300E-1,-8.981153965E-1,-1.016056061E0,-2.950351715E0,3.247084296E0
4.816255400E-1,-2.283226490E0,-4.455022812E-1,-9.217739105E-2,2.328109138E0
4.863671030E-1,-2.270941257E0,-3.977222443E-1,6.568241119E-1,2.397243228E0
4.911086650E-1,-1.915421247E0,-4.473109245E-1,6.188678741E-2,1.967931806E0
4.958502280E-1,-1.273794055E0,-6.712536812E-1,-4.214468002E-1,1.500250047E0
5.005917900E-1,-6.227216721E-1,-9.748239517E-1,-1.127492905E0,1.615334104E0
5.053333010E-1,-2.247161865E-1,-1.195101261E0,-2.382896423E0,2.675249475E0
5.100748630E-1,1.310501099E-1,-1.233127117E0,-3.619906902E0,3.826421644E0
5.148164260E-1,6.012517214E-1,-1.176939964E0,-4.365833759E0,4.561490516E0
5.195579880E-1,1.011934280E0,-1.152495384E0,-4.704248905E0,4.947950521E0
5.242995510E-1,1.209296107E0,-1.187569141E0,-4.985633850E0,5.265858185E0
5.290411130E-1,1.268433332E0,-1.158442497E0,-5.172706604E0,5.450486744E0
5.337826240E-1,1.214230061E0,-1.115895748E0,-5.126338959E0,5.385065374E0
5.385241860E-1,1.161659956E0,-1.039259434E0,-4.997800350E0,5.235219419E0
5.432657490E-1,1.111109376E0,-9.175291061E-1,-4.820643902E0,5.031404509E0
5.480073110E-1,1.084658384E0,-7.516369820E-1,-4.535545349E0,4.723622929E0
5.527488740E-1,1.033241034E0,-5.520038605E-1,-4.225978374E0,4.385337902E0
5.574904360E-1,1.052705646E0,-3.761963844E-1,-3.979562759E0,4.133598027E0
5.622319470E-1,1.043082833E0,-2.596540451E-1,-3.835918903E0,3.983681194E0
5.669735090E-1,8.763263226E-1,-2.445464134E-1,-3.713470936E0,3.823299251E0
5.717150720E-1,7.432597876E-1,-3.133692741E-1,-3.557503223E0,3.647802708E0
5.764566340E-1,6.765240431E-1,-3.751664162E-1,-3.349387646E0,3.437561959E0
5.811981970E-1,6.419793963E-1,-4.607419968E-1,-3.189341068E0,3.285774974E0
5.859397590E-1,6.677747369E-1,-5.436792374E-1,-3.048516750E0,3.167801223E0
5.906812700E-1,7.248290181E-1,-5.718026161E-1,-2.853151798E0,2.998801514E0
5.954228320E-1,7.725659609E-1,-6.170201302E-1,-2.522824287E0,2.709652079E0
6.001643950E-1,7.609388232E-1,-6.417341232E-1,-2.120052814E0,2.342108988E0
6.049059570E-1,7.564471364E-1,-6.512079239E-1,-1.775791168E0,2.037085738E0
6.096475200E-1,7.871679068E-1,-6.554141045E-1,-1.491687775E0,1.809511917E0
6.143890820E-1,8.904348612E-1,-6.571450233E-1,-1.198148251E0,1.631034351E0
6.191305920E-1,9.560961723E-1,-5.948462486E-1,-1.006724358E0,1.510448901E0
6.238721550E-1,1.038805842E0,-5.498261452E-1,-9.497795105E-1,1.511127886E0
6.286137170E-1,1.083617926E0,-5.144968033E-1,-9.979043007E-1,1.560367829E0
6.333552800E-1,1.152585030E0,-4.289221764E-1,-1.112523079E0,1.658352823E0
6.380968420E-1,1.264794111E0,-3.192739487E-1,-1.245768070E0,1.803767746E0
6.428384050E-1,1.318042994E0,-1.948270798E-1,-1.404818535E0,1.936158578E0
6.475799150E-1,1.253626108E0,-1.053276062E-1,-1.470817566E0,1.935452566E0
6.523214780E-1,1.158012986E0,-1.955413818E-2,-1.475380898E0,1.875666610E0
6.570630400E-1,1.026930571E0,6.960105896E-2,-1.373767376E0,1.716586004E0
6.618046030E-1,8.874720335E-1,9.532928467E-2,-1.154685020E0,1.459449136E0
6.665461650E-1,7.951732278E-1,1.314768791E-1,-8.948187828E-1,1.204278741E0
6.712876760E-1,7.410920262E-1,1.657347679E-1,-6.654953957E-1,1.009737355E0
6.760292380E-1,7.092080116E-1,1.881117821E-1,-3.592395782E-1,8.169547851E-1
6.807708010E-1,6.903882623E-1,1.812214851E-1,7.851791382E-2,7.180823366E-1
6.855123630E-1,7.730614543E-1,1.611938477E-1,5.283966064E-1,9.501633767E-1
6.902539260E-1,8.452866673E-1,1.537113190E-1,8.694076538E-1,1.222295540E0
6.949954880E-1,9.121080041E-1,1.273927689E-1,1.081137657E0,1.420221308E0
6.997369990E-1,1.002193689E0,1.273331642E-1,1.228762627E0,1.590743071E0
7.044785610E-1,1.124759912E0,1.175374985E-1,1.338926315E0,1.752604805E0
7.092201240E-1,1.248810291E0,1.076040268E-1,1.376188278E0,1.861451033E0
7.139616860E-1,1.302900434E0,1.071138382E-1,1.428945541E0,1.936726174E0
7.187032490E-1,1.273099184E0,1.040883064E-1,1.421004295E0,1.910724762E0
7.234447590E-1,1.238134980E0,4.661560059E-2,1.357319832E0,1.837788989E0
7.281863220E-1,1.066421390E0,-5.977249146E-2,1.276082039E0,1.664095160E0
7.329278840E-1,8.718357086E-1,-2.119641304E-1,1.086828232E0,1.409333850E0
7.376694470E-1,7.773655653E-1,-3.523039818E-1,8.899841309E-1,1.233080318E0
7.424110090E-1,7.841045856E-1,-4.473752975E-1,6.569299698E-1,1.116477337E0
7.471525720E-1,8.720559478E-1,-5.803971291E-1,3.996028900E-1,1.121171206E0
7.518941340E-1,9.960236549E-1,-7.317276001E-1,1.108198166E-1,1.240874463E0
7.566356450E-1,1.204856038E0,-8.416216373E-1,-1.569900513E-1,1.478056470E0
7.613772070E-1,1.442981839E0,-9.504609108E-1,-4.112548828E-1,1.776148392E0
7.661187700E-1,1.598457575E0,-1.112731457E0,-5.522508621E-1,2.024405821E0
7.708603320E-1,1.664231062E0,-1.232670307E0,-6.235942841E-1,2.162870996E0
7.756018950E-1,1.594394803E0,-1.348530293E0,-5.971183777E-1,2.171906788E0
7.803434570E-1,1.294728875E0,-1.422029734E0,-5.067367554E-1,1.988786958E0
7.850849670E-1,8.633114100E-1,-1.534106731E0,-4.336738586E-1,1.812970786E0
7.898265300E-1,4.207551777E-1,-1.653534889E0,-1.754817963E-1,1.715227801E0
7.945680920E-1,5.084642768E-2,-1.723044395E0,1.668262482E-1,1.731848245E0
7.993096550E-1,-2.018362880E-1,-1.819073915E0,3.881654739E-1,1.870946347E0
8.040512170E-1,-3.856127858E-1,-1.958369493E0,7.106437683E-1,2.118707828E0
8.087927800E-1,-5.388413072E-1,-2.122015238E0,1.202705383E0,2.497958939E0
8.135342900E-1,-6.665683985E-1,-2.267422676E0,1.589647293E0,2.848244642E0
8.182758530E-1,-6.790007353E-1,-2.280736685E0,1.833796501E0,3.004265539E0
8.230174150E-1,-5.343444347E-1,-2.276771069E0,1.733204842E0,2.910877788E0
8.277589780E-1,-3.472667933E-1,-2.262366772E0,1.610572815E0,2.798721570E0
8.325005400E-1,-1.714594364E-1,-2.313354731E0,1.444089890E0,2.732472151E0
8.372421030E-1,1.429939270E-1,-2.383351326E0,1.185873032E0,2.665915538E0
8.419836650E-1,4.036626816E-1,-2.450007915E0,9.265546799E-1,2.650280348E0
8.467251760E-1,7.866481543E-1,-2.600734711E0,7.945756912E-1,2.830898600E0
8.514667380E-1,1.152657390E0,-2.715301752E0,5.963335037E-1,3.009501007E0
8.562083010E-1,1.595911980E0,-2.693465710E0,2.560644150E-1,3.141219757E0
8.609498630E-1,2.134305477E0,-2.606680393E0,-1.540307999E-1,3.372501746E0
8.656914260E-1,2.742476225E0,-2.388254642E0,-5.572805405E-1,3.679062066E0
8.704329360E-1,3.348078012E0,-2.126571178E0,-9.297671318E-1,4.073867729E0
8.751744990E-1,3.939125538E0,-1.943114400E0,-1.023778439E0,4.510047213E0
8.799160610E-1,4.356070042E0,-1.759189010E0,-8.379964828E-1,4.772036283E0
8.846576240E-1,4.506454945E0,-1.577794194E0,-4.710302353E-1,4.797857873E0
8.893991860E-1,4.502466202E0,-1.433300734E0,6.725025177E-2,4.725576736E0
8.941407490E-1,4.474114895E0,-1.236658812E0,8.266744614E-1,4.714914609E0
8.988822590E-1,4.331802368E0,-9.639625549E-1,1.856912613E0,4.810598717E0
9.036238220E-1,3.928490162E0,-6.295833588E-1,2.885832787E0,4.915021977E0
9.083653840E-1,3.302883863E0,-2.574932575E-1,3.771277428E0,5.019748801E0
9.131069470E-1,2.545726776E0,6.421542168E-2,4.569396019E0,5.231082911E0
9.178485090E-1,1.685189962E0,3.815999031E-1,5.252499580E0,5.529397394E0
9.225900720E-1,8.208078146E-1,6.074481010E-1,5.878638268E0,5.966666284E0
9.273315820E-1,8.743155003E-2,8.243284225E-1,6.448313713E0,6.501377651E0
9.320731450E-1,-3.493297100E-1,1.029154301E0,6.814268112E0,6.900394172E0
9.368147070E-1,-5.489609241E-1,1.271730900E0,6.903668404E0,7.041256635E0
9.415562700E-1,-5.466854572E-1,1.447041035E0,6.813097000E0,6.986492931E0
9.462978320E-1,-3.959887028E-1,1.524944782E0,6.469469070E0,6.658550420E0
9.510393950E-1,-1.120972633E-2,1.451944590E0,6.000161171E0,6.173346161E0
9.557809050E-1,4.252049327E-1,1.370211601E0,5.188525200E0,5.383221416E0
9.605224670E-1,7.957533598E-1,1.301865578E0,4.542777061E0,4.792170784E0
9.652640300E-1,3.557640910E-1,2.217676640E-1,1.364357948E0,1.427312718E0
9.700055920E-1,-2.437398434E-1,-1.597642899E-3,4.261902809E0,4.268867206E0
9.747471550E-1,1.712442160E0,1.119191647E0,4.975336075E0,5.379499712E0
9.794887170E-1,3.120918274E0,1.855248928E0,2.510584831E0,4.414194791E0
9.842302280E-1,3.304726124E0,1.399902821E0,3.097286224E-1,3.602342915E0
9.889717900E-1,2.727810860E0,7.928140163E-1,3.700561523E-1,2.864689810E0
9.937133530E-1,2.389762163E0,5.502674580E-1,1.836376190E-1,2.459162509E0
9.984549150E-1,2.319610834E0,5.379953384E-1,-4.490900040E-1,2.423162239E0
1.003196478E0,2.165557861E0,4.721751213E-1,-1.622330666E0,2.746733876E0
1.007938040E0,8.829143643E-1,2.829163074E-1,-1.306175232E0,1.601771878E0
1.012679603E0,6.550516486E-1,5.027124882E-1,-8.919572830E-1,1.215483567E0
1.017421113E0,7.675707936E-1,7.685770988E-1,-9.832563400E-1,1.465151429E0
1.022162676E0,5.009857416E-1,8.042871952E-1,-1.165727615E0,1.502260124E0
1.026904238E0,5.002461672E-1,8.036637306E-1,-1.563138485E0,1.827436331E0
1.031645801E0,2.064514160E-2,5.443420410E-1,-2.026723862E0,2.098652923E0
1.036387363E0,-1.944937706E-1,4.729468822E-1,-1.788366795E0,1.860043648E0
1.041128874E0,3.412823677E-1,6.822090149E-1,-2.175966263E0,2.305799638E0
1.045870436E0,6.963220835E-1,8.476514816E-1,-2.693216324E0,2.908056335E0
1.050611999E0,9.250938892E-1,8.987305164E-1,-3.193958759E0,3.444544644E0
1.055353561E0,1.246497273E0,9.743587971E-1,-3.539639950E0,3.877135733E0
1.060095124E0,1.125572085E0,8.859095573E-1,-3.627939701E0,3.900473656E0
1.064836686E0,1.268968582E0,8.341562748E-1,-3.747901440E0,4.043867351E0
1.069578197E0,1.524734020E0,8.754451275E-1,-3.708111286E0,4.103816189E0
1.074319759E0,1.674256325E0,9.321300983E-1,-3.565904140E0,4.048169105E0
1.079061322E0,1.766564369E0,9.506406784E-1,-3.423681259E0,3.968130635E0
1.083802884E0,1.778763652E0,9.897005558E-1,-3.240474701E0,3.826771956E0
1.088544447E0,1.802508235E0,1.072155476E0,-3.099529266E0,3.742410316E0
1.093286009E0,1.788734794E0,1.085142374E0,-2.971820831E0,3.634394748E0
1.098027520E0,1.741230607E0,1.085655212E0,-2.823792934E0,3.490607082E0
1.102769082E0,1.737632275E0,1.111477137E0,-2.653128624E0,3.360630721E0
1.107510645E0,1.738430500E0,1.171597481E0,-2.445649147E0,3.221176960E0
1.112252207E0,1.739592433E0,1.234529018E0,-2.289799690E0,3.129445055E0
1.116993770E0,1.731826544E0,1.259500504E0,-2.223622322E0,3.087079676E0
1.121735332E0,1.722491026E0,1.303915024E0,-2.232630730E0,3.106736181E0
1.126476842E0,1.721487045E0,1.313086748E0,-2.264319420E0,3.132867200E0
1.131218405E0,1.693594456E0,1.275702238E0,-2.283164501E0,3.115849566E0
1.135959967E0,1.674923182E0,1.268610477E0,-2.344327927E0,3.148112710E0
1.140701530E0,1.632513762E0,1.270592690E0,-2.343029022E0,3.125586659E0
1.145443092E0,1.554791808E0,1.243463993E0,-2.153362751E0,2.932669672E0
1.150184655E0,1.430075049E0,1.232283354E0,-1.828641415E0,2.628224940E0
1.154926165E0,1.334794521E0,1.226807356E0,-1.452840805E0,2.323247535E0
1.159667728E0,1.240389824E0,1.202708960E0,-1.095329285E0,2.045683748E0
1.164409290E0,1.142629504E0,1.121591806E0,-7.561016083E-1,1.770666543E0
1.169150853E0,1.058986783E0,1.062169313E0,-3.779764175E-1,1.546778209E0
1.173892415E0,9.255592227E-1,9.742662907E-1,-5.896949768E-2,1.345114152E0
1.178633926E0,8.668343425E-1,9.222596884E-1,3.298749924E-1,1.307968738E0
1.183375488E0,8.063405156E-1,9.152538776E-1,7.263278961E-1,1.419657318E0
1.188117051E0,6.199396253E-1,8.024768829E-1,1.116184235E0,1.508032338E0
1.192858613E0,4.170676470E-1,7.434659004E-1,1.642799377E0,1.850804355E0
1.197600176E0,2.323775291E-1,6.421132088E-1,2.084177971E0,2.193195500E0
1.202341686E0,1.500066519E-1,5.767364502E-1,2.488702774E0,2.559056159E0
1.207083249E0,5.349045992E-2,4.944013357E-1,2.821043968E0,2.864538877E0
1.211824811E0,-3.715419769E-2,3.758691549E-1,3.067425728E0,3.090591958E0
1.216566374E0,-1.636998653E-1,2.452214956E-1,3.247395515E0,3.260752806E0
1.221307936E0,-1.942004561E-1,1.147860289E-1,3.172926903E0,3.180936148E0
1.226049499E0,-2.189996839E-1,1.399493217E-2,2.976134300E0,2.984213815E0
1.230791009E0,-1.752805114E-1,-6.370031834E-2,2.767102242E0,2.773379852E0
1.235532572E0,-2.365916967E-1,-1.271103621E-1,2.462278366E0,2.476882603E0
1.240274134E0,-3.251338303E-1,-1.610212326E-1,2.150058746E0,2.180456938E0
1.245015697E0,-4.871175289E-1,-1.671559811E-1,1.808801651E0,1.880688178E0
1.249757259E0,-7.157660723E-1,-1.233665943E-1,1.507551193E0,1.673395048E0
1.254498770E0,-9.228554368E-1,-7.434105873E-2,1.167209625E0,1.489821150E0
1.259240332E0,-1.194095373E0,-6.704521179E-2,8.234624863E-1,1.452050029E0
1.263981895E0,-1.430971265E0,-8.162951469E-2,5.977506638E-1,1.552948162E0
1.268723457E0,-1.680789709E0,-9.148335457E-2,4.274930954E-1,1.736713447E0
1.273465020E0,-1.861962914E0,-9.627366066E-2,2.193489075E-1,1.877308833E0
1.278206530E0,-1.964883447E0,-7.426118851E-2,-3.900527954E-4,1.966286306E0
1.282948092E0,-2.013311625E0,-3.726005554E-2,-2.818250656E-1,2.033282414E0
1.287689655E0,-2.068682671E0,-4.078149796E-3,-5.771121979E-1,2.147678540E0
1.292431217E0,-2.132508516E0,1.360034943E-2,-8.170995712E-1,2.283731431E0
1.297172780E0,-2.275810719E0,1.115775108E-2,-9.686269760E-1,2.473393851E0
1.301914290E0,-2.440662146E0,6.481432915E-2,-1.039134979E0,2.653457011E0
1.306655853E0,-2.450299025E0,1.622805595E-1,-1.071805000E0,2.679377959E0
1.311397415E0,-2.364798069E0,2.793881893E-1,-1.114418030E0,2.629116812E0
1.316138978E0,-2.362499714E0,3.392279148E-1,-1.038029671E0,2.602688240E0
1.320880540E0,-2.607826233E0,5.604240894E-1,-5.996360779E-1,2.733934207E0
1.325622051E0,-2.623706579E0,6.817986965E-1,-4.516878128E-1,2.748218979E0
1.330363613E0,-2.669418812E0,8.085963726E-1,-3.761301041E-1,2.814444660E0
1.335105176E0,-2.766450405E0,9.286880493E-1,-1.485900879E-1,2.921949409E0
1.339846738E0,-3.252776623E0,1.253374100E0,4.355401993E-1,3.513004079E0
1.344588301E0,-3.509353161E0,1.523517847E0,9.384536743E-1,3.939208237E0
1.349329811E0,-3.489954948E0,1.489108086E0,1.300667763E0,4.011105217E0
1.354071374E0,-3.388343811E0,1.416267157E0,1.601394653E0,4.006388807E0
1.358812936E0,-3.272329330E0,1.286141396E0,1.774192810E0,3.938281232E0
1.363554499E0,-4.368774414E0,1.509047031E0,2.041490555E0,5.052830544E0
1.368296061E0,-3.896283388E0,1.405598521E0,2.265037537E0,4.720924325E0
1.373037572E0,-2.865575075E0,6.639317274E-1,2.707884789E0,3.998120293E0
1.377779134E0,-1.854883432E0,-4.722708464E-1,2.849411964E0,3.432605547E0
1.382520697E0,-1.299432278E0,-1.293696642E0,2.905007362E0,3.435293731E0
1.387262259E0,-1.276899695E0,-1.505300045E0,2.327944756E0,3.052167728E0
1.392003822E0,-1.426091313E0,-1.298533440E0,1.327610970E0,2.341468858E0
1.396745332E0,-1.490709424E0,-1.111217022E0,1.031428337E0,2.126231942E0
1.401486895E0,-1.340328455E0,-1.246059418E0,1.186364174E0,2.180964097E0
1.406228457E0,-1.094148517E0,-1.520439625E0,1.401967049E0,2.339745549E0
1.410970020E0,-8.373288512E-1,-1.733427405E0,1.492009163E0,2.435565954E0
1.415711530E0,-6.520826817E-1,-1.807122111E0,1.574053764E0,2.483656055E0
1.420453092E0,-8.017481565E-1,-1.662015438E0,1.820229530E0,2.591974337E0
1.425194655E0,-1.262309551E0,-1.204953313E0,2.170679092E0,2.785172456E0
1.429936217E0,-1.131381512E0,-1.352629304E0,2.861562729E0,3.361275265E0
1.434677780E0,-7.796971202E-1,-1.739268780E0,3.242920876E0,3.761584678E0
1.439419290E0,-2.216252685E-1,-2.121775627E0,3.220478058E0,3.862968870E0
1.444160853E0,2.191367298E-1,-2.333953857E0,2.950768471E0,3.768606650E0
1.448902415E0,4.806532264E-1,-2.378862381E0,2.499003410E0,3.483537254E0
1.453643978E0,7.367179394E-1,-2.345224857E0,2.147227287E0,3.263957410E0
1.458385488E0,1.129513621E0,-2.240290642E0,1.890197754E0,3.141265785E0
1.463127051E0,1.599436045E0,-2.176297188E0,1.689314842E0,3.185631766E0
1.467868613E0,1.990813136E0,-2.029140949E0,1.463219643E0,3.197148989E0
1.472610176E0,2.262376308E0,-1.818438411E0,1.161885262E0,3.126506385E0
1.477351686E0,2.415894508E0,-1.704519510E0,9.120359421E-1,3.094146505E0
1.482093249E0,2.446978807E0,-1.658691049E0,8.709716797E-1,3.081810011E0
1.486834811E0,2.444496870E0,-1.554622531E0,8.494720459E-1,3.018943345E0
1.491576374E0,2.435259342E0,-1.378145456E0,7.042331696E-1,2.885431912E0
1.496317936E0,2.252913952E0,-1.220088720E0,4.689941406E-1,2.604648395E0
1.501059447E0,1.974447250E0,-1.068123221E0,1.654577255E-1,2.250934344E0
1.505801009E0,1.676120996E0,-9.768782854E-1,-7.970237732E-2,1.941655286E0
1.510542572E0,1.407808185E0,-8.982576728E-1,-3.549842834E-1,1.707279875E0
1.515284134E0,1.248782158E0,-7.770817876E-1,-6.770534515E-1,1.619170886E0
1.520025645E0,1.056831598E0,-6.323418021E-1,-9.503822327E-1,1.555627066E0
1.524767207E0,7.640416622E-1,-5.352562070E-1,-1.284972191E0,1.587895589E0
1.529508770E0,4.643204510E-1,-4.182058871E-1,-1.604298592E0,1.721703696E0
1.534250332E0,2.435404658E-1,-2.450703979E-1,-1.860658646E0,1.892464545E0
1.538991842E0,1.912226379E-1,-1.017575860E-1,-2.015989304E0,2.027593050E0
1.543733405E0,1.865022779E-1,-9.567022324E-3,-2.108707428E0,2.116960473E0
1.548474967E0,2.424661666E-1,3.378456831E-2,-2.084014893E0,2.098344422E0
1.553216530E0,3.169943690E-1,-1.241266727E-2,-2.080607414E0,2.104653586E0
1.557958040E0,3.584381640E-1,-4.530566931E-2,-2.107913017E0,2.138650932E0
1.562699603E0,4.204134643E-1,-4.829937220E-2,-2.203998566E0,2.244257113E0
1.567441165E0,5.205203891E-1,-4.017561674E-2,-2.385398865E0,2.441860622E0
1.572182728E0,6.221910715E-1,4.959940910E-3,-3.222477436E0,3.281997434E0
1.576924238E0,6.956151724E-1,8.164310455E-2,-3.675230980E0,3.741372585E0
1.581665801E0,7.526773810E-1,-1.154462099E-1,-3.976459026E0,4.048713062E0
1.586407363E0,6.377652884E-1,-2.302634120E-1,-4.095634937E0,4.151384268E0
1.591148926E0,4.837391973E-1,-2.019428015E-1,-3.813686371E0,3.849543900E0
1.595890436E0,3.118415475E-1,-1.085511446E-1,-3.325063705E0,3.341418433E0
1.600631999E0,6.865273416E-2,5.326104164E-2,-2.892831802E0,2.894136447E0
1.605373561E0,-2.759681940E-1,2.107373476E-1,-2.564473629E0,2.587874353E0
1.610115072E0,-6.591513753E-1,2.988107800E-1,-2.291879177E0,2.403430586E0
1.614856634E0,-1.023003340E0,3.841983080E-1,-2.074845314E0,2.345021802E0
1.619598197E0,-1.288228869E0,4.404684305E-1,-1.917950630E0,2.352037559E0
1.624339759E0,-1.376152992E0,5.059166551E-1,-1.897389889E0,2.397881796E0
1.629081270E0,-1.318578482E0,5.451101661E-1,-2.055752754E0,2.502381604E0
1.633822832E0,-1.123084068E0,5.325889587E-1,-2.289921761E0,2.605515399E0
1.638564395E0,-7.922818065E-1,5.479744077E-1,-2.497083664E0,2.676455349E0
1.643305957E0,-4.358064532E-1,4.366709590E-1,-2.565173149E0,2.638318039E0
1.648047467E0,-7.472386956E-2,3.139018416E-1,-2.668865681E0,2.688300959E0
1.652789030E0,3.128062785E-1,1.445979476E-1,-2.729334831E0,2.751004354E0
1.657530592E0,9.068912268E-1,-2.418905497E-1,-2.959223747E0,3.104507678E0
1.662272103E0,1.528903008E0,-3.885961175E-1,-2.627595901E0,3.064769416E0
1.667013665E0,2.128337145E0,-3.959780931E-1,-2.636072636E0,3.411084372E0
1.671755228E0,2.740198374E0,-3.489703238E-1,-2.661469936E0,3.835868824E0
1.676496790E0,3.715155125E0,1.859944463E-1,-2.541459084E0,4.505106637E0
1.681238301E0,3.363810539E0,-1.338267326E-1,-2.761128426E0,4.353959247E0
1.685979863E0,2.962506771E0,-4.827922583E-1,-2.756112099E0,4.075007808E0
1.690721426E0,2.660249472E0,-5.559396744E-1,-2.388545990E0,3.618169167E0
1.695462936E0,2.469912529E0,-3.379914463E-1,-1.914853573E0,3.143464701E0
1.700204499E0,2.207745552E0,-1.420831680E-2,-1.027278900E0,2.435086084E0
1.704946061E0,1.762392282E0,2.425807714E-1,-1.303291321E-1,1.783776239E0
1.709687572E0,1.111571789E0,4.865447879E-1,9.098224640E-1,1.516606273E0
1.714429134E0,4.810348153E-1,6.379911304E-1,1.923422813E0,2.082782393E0
1.719170697E0,-2.997159958E-3,7.417938113E-1,2.767391205E0,2.865086582E0
1.723912259E0,-2.728507519E-1,6.948022246E-1,3.263156891E0,3.347445378E0
1.728653770E0,-3.999758959E-1,5.685060024E-1,3.404474258E0,3.474712185E0
1.733395332E0,-3.646209836E-1,3.791610301E-1,3.371315002E0,3.412107325E0
1.738136895E0,-2.678765059E-1,1.859875917E-1,3.355117798E0,3.370929344E0
1.742878405E0,-2.814185619E-1,-3.305673599E-2,3.367774010E0,3.379673199E0
1.747619967E0,-3.993620872E-1,-2.524190545E-1,3.533391953E0,3.564837184E0
1.752361530E0,-3.268903494E-1,-1.742485613E-1,3.751317024E0,3.769562213E0
1.757103040E0,4.298897982E-1,3.843489289E-1,3.839940071E0,3.882997436E0
1.761844603E0,-1.318727136E-1,-3.664585650E-1,3.360067368E0,3.382563378E0
1.766586165E0,-7.066273689E-1,-7.737659216E-1,2.976821899E0,3.155868274E0
1.771327728E0,-9.072211981E-1,-9.059585929E-1,2.802148819E0,3.081533592E0
1.776069238E0,-1.098610759E0,-1.003115177E0,2.410386086E0,2.832515973E0
1.780810801E0,-1.346420527E0,-8.629590273E-1,2.131505013E0,2.664743916E0
1.785552311E0,-1.469043255E0,-5.581760406E-1,1.869703293E0,2.442424816E0
1.790293874E0,-1.363425970E0,-4.234273434E-1,1.345674515E0,1.961902391E0
1.795035436E0,-1.579750061E0,-3.032145798E-1,1.145310402E0,1.974660795E0
1.799776999E0,-1.520267725E0,1.221527457E-1,8.595266342E-1,1.750691659E0
1.804518509E0,-1.529137135E0,5.938988328E-1,5.507621765E-1,1.730408962E0
1.809260072E0,-1.747513294E0,1.141770482E0,7.709379196E-1,2.225261293E0
1.814001634E0,-1.963418126E0,1.499427080E0,9.482755661E-1,2.646227287E0
1.818743145E0,-2.126163721E0,1.584610939E0,6.938714981E-1,2.740989174E0
1.823484707E0,-2.294580460E0,1.659638286E0,3.528747559E-1,2.853772822E0
1.828226270E0,-2.387902260E0,1.657347918E0,-1.411952972E-1,2.910122924E0
1.832967780E0,-2.515685320E0,1.627738476E0,-8.189945221E-1,3.106277065E0
1.837709342E0,-2.601037502E0,1.587296009E0,-1.384047508E0,3.346713644E0
1.842450905E0,-2.676097393E0,1.617336035E0,-2.073329926E0,3.751795582E0
1.847192415E0,-2.319257736E0,1.782778263E0,-2.944247246E0,4.150403188E0
1.851933978E0,-2.018899679E0,1.997246981E0,-3.571672916E0,4.563090930E0
1.856675540E0,-2.002123833E0,2.173598289E0,-4.056872845E0,5.019088228E0
1.861417051E0,-2.146937609E0,2.286276817E0,-4.261998177E0,5.291600064E0
1.866158613E0,-2.362753391E0,2.481202841E0,-4.316927433E0,5.511336824E0
1.870900124E0,-2.579424620E0,2.745908022E0,-4.341636181E0,5.748325579E0
1.875641686E0,-2.689151287E0,3.025063038E0,-4.396098137E0,5.975635519E0
1.880383249E0,-2.690434217E0,3.253923893E0,-4.303612709E0,6.028892048E0
1.885124759E0,-2.759794474E0,3.437371731E0,-4.126666546E0,6.038324828E0
1.889866322E0,-2.779875517E0,3.499040127E0,-3.968173504E0,5.976402819E0
1.894607884E0,-2.798096895E0,3.451112747E0,-3.677619934E0,5.767530998E0
1.899349395E0,-2.830729961E0,3.234091759E0,-3.341269493E0,5.443938229E0
1.904090957E0,-2.860851288E0,2.893963814E0,-3.035652161E0,5.076877060E0
1.908832520E0,-2.849671125E0,2.498094082E0,-2.705718040E0,4.656394494E0
1.913574030E0,-2.798999310E0,2.027237415E0,-2.239156246E0,4.117998223E0
1.918315592E0,-2.801358938E0,1.442584753E0,-1.614597321E0,3.540563116E0
1.923057103E0,-2.862990856E0,8.224676847E-1,-9.444551468E-1,3.124926441E0
1.927798665E0,-2.719736814E0,2.709137201E-1,-7.333564758E-2,2.734180078E0
1.932540228E0,-2.433115005E0,-2.663809657E-1,9.985733032E-1,2.643512075E0
1.937281738E0,-2.019650936E0,-8.034931421E-1,2.168407440E0,3.070273923E0
1.942023301E0,-1.484607458E0,-1.361943841E0,3.328758240E0,3.890961546E0
1.946764811E0,-8.973011971E-1,-1.915217400E0,4.358093262E0,4.844190748E0
1.951506374E0,-2.954823673E-1,-2.501053572E0,5.216303825E0,5.792443733E0
1.956247936E0,2.449222356E-1,-3.015804052E0,5.908679008E0,6.638339296E0
1.960989447E0,7.648211718E-1,-3.436611414E0,6.328157425E0,7.241603816E0
1.965731009E0,1.324173212E0,-3.711425304E0,6.547005653E0,7.641426275E0
1.970472572E0,1.770641088E0,-3.807084084E0,6.613413811E0,7.833664616E0
1.975214082E0,2.090947151E0,-3.773665905E0,6.565890312E0,7.856432393E0
1.979955645E0,2.271637917E0,-3.653723240E0,6.390313148E0,7.703644233E0
1.984697155E0,2.305733204E0,-3.508660555E0,6.041543007E0,7.357128951E0
1.989438717E0,2.216617823E0,-3.363877296E0,5.639341354E0,6.930457124E0
1.994180280E0,1.912938833E0,-3.271184444E0,5.281715393E0,6.500499992E0
1.998921790E0,1.508972049E0,-3.208347797E0,4.930312157E0,6.072764625E0
2.003663353E0,1.173597455E0,-3.091178656E0,4.551653862E0,5.625857210E0
2.008404863E0,9.079813957E-1,-2.923998833E0,4.107542992E0,5.123095628E0
2.013146426E0,7.348724604E-1,-2.749164104E0,3.655378342E0,4.632464962E0
2.017887936E0,5.862344503E-1,-2.565943480E0,3.132984161E0,4.091861010E0
2.022629499E0,4.829343259E-1,-2.363847733E0,2.569067001E0,3.524359080E0
2.027371061E0,4.148687720E-1,-2.184864998E0,2.056727409E0,3.029171305E0
2.032112572E0,3.675886691E-1,-1.999434471E0,1.583786964E0,2.577060493E0
2.036854134E0,3.126388788E-1,-1.790071011E0,1.181109428E0,2.167283270E0
2.041595645E0,2.525366545E-1,-1.603877544E0,8.460445404E-1,1.830843877E0
2.046337207E0,1.942890286E-1,-1.426008224E0,6.141738892E-1,1.564754693E0
2.051078770E0,2.378938198E-1,-1.304138780E0,4.469842911E-1,1.398987628E0
2.055820280E0,3.015571237E-1,-1.173819661E0,3.347387314E-1,1.257314326E0
2.060561842E0,3.947125375E-1,-1.061877966E0,3.251113892E-1,1.178592473E0
2.065303353E0,4.717889130E-1,-1.019094110E0,3.940229416E-1,1.190122540E0
2.070044915E0,5.374596119E-1,-9.647805095E-1,4.481868744E-1,1.191862299E0
2.074786426E0,6.012029052E-1,-9.163749218E-1,5.067968369E-1,1.207489530E0
2.079527988E0,5.960361958E-1,-8.839945197E-1,4.791145325E-1,1.168869622E0
2.084269551E0,5.600711107E-1,-8.775092959E-1,4.107227325E-1,1.119104721E0
2.089011061E0,5.219292641E-1,-8.807097077E-1,3.590669632E-1,1.084891160E0
2.093752624E0,4.930906892E-1,-8.560228348E-1,2.787342072E-1,1.026453253E0
2.098494134E0,5.281741023E-1,-8.374739289E-1,1.841220856E-1,1.007090565E0
2.103235697E0,5.883687139E-1,-8.112140894E-1,2.269649506E-2,1.002377760E0
2.107977207E0,6.661883593E-1,-7.561899424E-1,-2.436113358E-1,1.036810803E0
2.112718770E0,7.615955472E-1,-7.037655115E-1,-6.049985886E-1,1.200556939E0
2.117460280E0,8.654155731E-1,-6.301097274E-1,-9.967145920E-1,1.462676437E0
2.122201842E0,9.543081522E-1,-5.685724020E-1,-1.416258812E0,1.799935457E0
2.126943405E0,1.055172324E0,-5.046905875E-1,-1.865904808E0,2.202203891E0
2.131684915E0,1.151991725E0,-4.192031622E-1,-2.276247501E0,2.585366302E0
2.136426478E0,1.161851168E0,-3.454120755E-1,-2.683146000E0,2.944228268E0
2.141167988E0,1.121315837E0,-3.284831643E-1,-3.022071838E0,3.240087744E0
2.145909551E0,1.016527891E0,-3.181661367E-1,-3.278796673E0,3.447472446E0
2.150651061E0,8.572267294E-1,-3.072930574E-1,-3.508432388E0,3.624688195E0
2.155392624E0,7.030263543E-1,-2.985593081E-1,-3.622640133E0,3.702283788E0
2.160134134E0,4.963026643E-1,-2.922030687E-1,-3.659884930E0,3.704923301E0
2.164875697E0,3.250176907E-1,-2.337457538E-1,-3.723041058E0,3.744503745E0
2.169617207E0,2.409110069E-1,-2.071444988E-1,-3.785801888E0,3.799110802E0
2.174358770E0,3.267582655E-1,-1.118873358E-1,-4.022600651E0,4.037400864E0
2.179100280E0,4.722664356E-1,-7.357478142E-3,-4.311257839E0,4.337053594E0
2.183841842E0,6.151522994E-1,8.343267441E-2,-4.644583702E0,4.685886376E0
2.188583353E0,6.429119110E-1,1.351939440E-1,-5.001110554E0,5.044077705E0
2.193324915E0,6.699056625E-1,2.375687361E-1,-5.383383751E0,5.430104337E0
2.198066478E0,8.126432300E-1,3.629792929E-1,-5.817843914E0,5.885528931E0
2.202807988E0,9.295022488E-1,4.863198996E-1,-6.259207726E0,6.346507924E0
2.207549551E0,1.063617706E0,5.918310881E-1,-6.621600151E0,6.732542998E0
2.212291061E0,1.193867564E0,7.065161467E-1,-6.852708817E0,6.991716738E0
2.217032624E0,1.351949215E0,8.021136522E-1,-6.993441105E0,7.167940533E0
2.221774134E0,1.466780901E0,9.219253063E-1,-7.003367901E0,7.214468410E0
2.226515697E0,1.586855173E0,1.027626753E0,-6.956767082E0,7.209073056E0
2.231257207E0,1.672533274E0,1.104711533E0,-6.822593689E0,7.110945068E0
2.235998770E0,1.655601740E0,1.157751322E0,-6.574641228E0,6.878031151E0
2.240740280E0,1.601830244E0,1.219940186E0,-6.289485455E0,6.603918645E0
2.245481842E0,1.430759192E0,1.233549237E0,-5.873943329E0,6.170245199E0
2.250223353E0,1.248262405E0,1.226755977E0,-5.387905121E0,5.665034056E0
2.254964915E0,1.011558533E0,1.261076331E0,-4.860089779E0,5.121917301E0
2.259706426E0,7.784138918E-1,1.247227788E0,-4.314345837E0,4.557969432E0
2.264447988E0,5.414877534E-1,1.218026757E0,-3.753007412E0,3.982695419E0
2.269189499E0,2.620066404E-1,1.189419866E0,-3.192747593E0,3.417163193E0
2.273931061E0,1.584219933E-2,1.194184661E0,-2.640669346E0,2.898182633E0
2.278672572E0,-2.311543822E-1,1.174665213E0,-2.230535507E0,2.531513255E0
2.283414134E0,-4.460145235E-1,1.138223529E0,-1.940591812E0,2.293551468E0
2.288155645E0,-6.436375380E-1,1.116430044E0,-1.737227440E0,2.163017453E0
2.292897207E0,-9.154562950E-1,1.078862190E0,-1.577368736E0,2.118984659E0
2.297638717E0,-1.135026932E0,1.138594151E0,-1.391749382E0,2.126416967E0
2.302380280E0,-1.199519873E0,1.195863962E0,-1.168558121E0,2.057781967E0
2.307121790E0,-1.292185545E0,1.162789226E0,-8.816080093E-1,1.949116453E0
2.311863301E0,-1.397208452E0,1.073430777E0,-4.856290817E-1,1.827643482E0
2.316604863E0,-1.532520533E0,9.874471426E-1,1.171865463E-1,1.826856242E0
2.321346374E0,-1.738029957E0,8.541344404E-1,8.596210480E-1,2.118783169E0
2.326087936E0,-1.929964423E0,7.443484068E-1,1.602952003E0,2.616920394E0
2.330829447E0,-2.060738325E0,6.329526901E-1,2.371220589E0,3.204677618E0
2.335571009E0,-2.197041988E0,5.495574474E-1,3.370023727E0,4.060303783E0
2.340312520E0,-2.232540607E0,4.206922054E-1,4.589544296E0,5.121048364E0
2.345054082E0,-2.185675859E0,2.086905241E-1,5.840794563E0,6.239840689E0
2.349795592E0,-2.097199440E0,2.166599035E-2,7.037881851E0,7.343738548E0
2.354537155E0,-1.941788077E0,-1.445622444E-1,7.937349319E0,8.172695602E0
2.359278665E0,-1.713845611E0,-2.505170107E-1,8.515969276E0,8.690325556E0
2.364020228E0,-1.511552453E0,-2.756016850E-1,8.791103363E0,8.924362467E0
2.368761738E0,-1.308886051E0,-3.542367220E-1,8.925787926E0,9.028197851E0
2.373503249E0,-1.263053894E0,-4.669173360E-1,8.810320854E0,8.912635440E0
2.378244811E0,-1.300865173E0,-4.909858704E-1,8.495294571E0,8.608330104E0
2.382986322E0,-1.317844868E0,-5.187690854E-1,8.059882164E0,8.183369536E0
2.387727884E0,-1.285436869E0,-4.747943282E-1,7.454067230E0,7.578977231E0
2.392469395E0,-1.193538189E0,-4.242172837E-1,6.728268623E0,6.846465685E0
2.397210957E0,-9.741436243E-1,-3.339589238E-1,5.904113770E0,5.993249850E0
2.401952467E0,-6.596710682E-1,-2.617585659E-1,5.053325653E0,5.102919127E0
2.406693978E0,-3.731758595E-1,-1.315872669E-1,4.300020218E0,4.318188197E0
2.411435540E0,-1.486317217E-1,-4.456210136E-2,3.596037865E0,3.599384044E0
2.416177051E0,-6.237536669E-2,7.965958118E-2,3.024756432E0,3.026448051E0
2.420918613E0,-7.885909081E-2,1.630965471E-1,2.619230270E0,2.625487850E0
2.425660124E0,-2.255179584E-1,1.609053612E-1,2.369474411E0,2.385614778E0
2.430401686E0,-4.947885275E-1,8.756756783E-2,2.241682053E0,2.297307596E0
2.435143197E0,-9.706068039E-1,-1.026935577E-1,2.328823090E0,2.525082279E0
2.439884707E0,-1.555368543E0,-2.837704420E-1,2.592314720E0,3.036411134E0
2.444626270E0,-2.250145435E0,-5.089908838E-1,2.981698036E0,3.769980024E0
2.449367780E0,-2.934850931E0,-7.075452209E-1,3.384488106E0,4.535276173E0
2.454109342E0,-3.399106503E0,-9.185748100E-1,3.760060310E0,5.151287046E0
2.458850853E0,-3.573794365E0,-1.147570848E0,4.003316879E0,5.487756468E0
2.463592415E0,-3.513910294E0,-1.361620665E0,4.131196022E0,5.591811599E0
2.468333926E0,-3.304308176E0,-1.606668830E0,4.215608597E0,5.592065190E0
2.473075436E0,-2.914249897E0,-1.813772440E0,4.285352707E0,5.490616609E0
2.477816999E0,-2.382318497E0,-1.988101482E0,4.273589134E0,5.281245404E0
2.482558509E0,-1.820502758E0,-2.170640707E0,4.240301132E0,5.099614207E0
2.487300072E0,-1.264094234E0,-2.304096222E0,4.121070862E0,4.887741675E0
2.492041582E0,-6.999262571E-1,-2.400419235E0,3.913758278E0,4.644288226E0
2.496783092E0,-2.610676885E-1,-2.438018322E0,3.542102814E0,4.307967272E0
2.501524655E0,8.241206408E-2,-2.452544451E0,3.135478973E0,3.981581900E0
2.506266165E0,3.196719587E-1,-2.458055258E0,2.689179420E0,3.657309362E0
2.511007676E0,3.845293522E-1,-2.397002697E0,2.234339714E0,3.299357318E0
2.515749238E0,3.665575087E-1,-2.293044090E0,1.794851303E0,2.934945793E0
2.520490749E0,3.193049431E-1,-2.134053230E0,1.358730316E0,2.549958217E0
2.525232311E0,2.574616969E-1,-1.941339254E0,8.566217422E-1,2.137495131E0
2.529973822E0,1.669919491E-1,-1.807863355E0,3.889541626E-1,1.856755655E0
2.534715332E0,2.930885553E-2,-1.623443961E0,8.219718933E-3,1.623729309E0
2.539456895E0,-5.235046148E-2,-1.469264984E0,-3.837404251E-1,1.519452822E0
2.544198405E0,-1.355019808E-1,-1.330697298E0,-8.443164825E-1,1.581766863E0
2.548939915E0,-1.820259094E-1,-1.207326293E0,-1.320903778E0,1.798765410E0
2.553681478E0,-1.873460412E-1,-1.091524363E0,-1.787289619E0,2.102600332E0
2.558422988E0,-1.561827064E-1,-9.996398687E-1,-2.219674110E0,2.439390510E0
2.563164551E0,-6.706255674E-2,-8.859463930E-1,-2.637297630E0,2.782936792E0
2.567906061E0,-1.366651058E-2,-8.269838095E-1,-2.982854843E0,3.095401753E0
2.572647572E0,-9.228897095E-2,-8.326829672E-1,-3.122607231E0,3.233040998E0
2.577389134E0,-2.875493169E-1,-8.702059984E-1,-3.142911434E0,3.273810528E0
2.582130645E0,-4.390181899E-1,-9.043879509E-1,-3.149136543E0,3.305709531E0
2.586872155E0,-5.200813413E-1,-9.357856512E-1,-3.186747074E0,3.361775766E0
2.591613717E0,-5.897716284E-1,-9.576853514E-1,-3.217484474E0,3.408401113E0
2.596355228E0,-5.199589133E-1,-9.345300198E-1,-3.346529484E0,3.513255359E0
2.601096738E0,-2.921939492E-1,-8.974612951E-1,-3.619139194E0,3.740184834E0
2.605838301E0,-9.085714817E-3,-8.558377028E-1,-3.920356274E0,4.012696604E0
2.610579811E0,2.823564708E-1,-8.473626375E-1,-4.269279957E0,4.361708377E0
2.615321322E0,4.970382154E-1,-8.187838793E-1,-4.684985161E0,4.781897112E0
2.620062884E0,6.334297061E-1,-7.981294394E-1,-5.124410152E0,5.224731879E0
2.624804395E0,7.900736332E-1,-7.728382349E-1,-5.503950596E0,5.613819328E0
2.629545905E0,9.146664143E-1,-7.423983812E-1,-5.866798401E0,5.983902864E0
2.634287467E0,1.023794174E0,-6.920752525E-1,-6.222612381E0,6.344133314E0
2.639028978E0,1.081566691E0,-6.312327385E-1,-6.497334957E0,6.616917925E0
2.643770540E0,1.100177288E0,-5.834772587E-1,-6.726969242E0,6.841268228E0
2.648512051E0,1.089501739E0,-5.749895573E-1,-6.842246532E0,6.952263275E0
2.653253561E0,1.037863970E0,-5.626803637E-1,-6.871984005E0,6.972656235E0
2.657995072E0,9.312428236E-1,-5.541623831E-1,-6.754035950E0,6.840417440E0
2.662736634E0,8.511630297E-1,-5.046815872E-1,-6.572104454E0,6.646182285E0
2.667478145E0,7.600361705E-1,-4.939397573E-1,-6.263937950E0,6.329182420E0
2.672219655E0,6.321924329E-1,-4.796730280E-1,-5.810423374E0,5.864364695E0
2.676961217E0,5.204601884E-1,-4.388027191E-1,-5.472116470E0,5.514298260E0
2.681702728E0,4.463845193E-1,-3.983579874E-1,-5.126777649E0,5.161569266E0
2.686444238E0,4.868169725E-1,-3.229817152E-1,-4.872294903E0,4.907195286E0
2.691185801E0,5.828940868E-1,-2.248134613E-1,-4.646356583E0,4.688169803E0
2.695927311E0,6.859066486E-1,-1.709699631E-1,-4.405906200E0,4.462253703E0
2.700668822E0,7.667126060E-1,-1.183261871E-1,-4.117607117E0,4.190052228E0
2.705410384E0,8.553899527E-1,-7.410609722E-2,-3.781636715E0,3.877880855E0
2.710151895E0,9.311616421E-1,-1.959967613E-2,-3.436350346E0,3.560330020E0
2.714893405E0,1.023349762E0,1.851904392E-2,-3.045956135E0,3.213321718E0
2.719634915E0,1.077598572E0,9.973740578E-2,-2.687060356E0,2.896801614E0
2.724376478E0,1.048695564E0,1.666953564E-1,-2.328623772E0,2.559304280E0
2.729117988E0,9.628236294E-1,2.216898203E-1,-1.946767330E0,2.183135075E0
2.733859499E0,9.103863239E-1,2.645992041E-1,-1.546294212E0,1.813792102E0
2.738601061E0,7.808802724E-1,3.071687222E-1,-1.033987045E0,1.331636525E0
2.743342572E0,5.688680410E-1,3.634922504E-1,-4.983921051E-1,8.391258277E-1
2.748084082E0,2.877319157E-1,3.570466042E-1,1.988220215E-2,4.589850050E-1
2.752825592E0,5.110490322E-2,3.478027582E-1,4.253139496E-1,5.517883883E-1
2.757567155E0,-1.399922222E-1,3.310663700E-1,7.994031906E-1,8.764977038E-1
2.762308665E0,-2.151542902E-1,3.332666159E-1,1.118338585E0,1.186608274E0
2.767050176E0,-2.523055971E-1,3.519685268E-1,1.418112755E0,1.482762201E0
2.771791686E0,-3.147939444E-1,3.299483061E-1,1.612724304E0,1.675959663E0
2.776533249E0,-3.821208179E-1,3.440315723E-1,1.771636963E0,1.844741600E0
2.781274759E0,-4.315674305E-1,3.466625214E-1,1.882929802E0,1.962613051E0
2.786016270E0,-3.877941966E-1,3.741296530E-1,1.862974167E0,1.939337537E0
2.790757832E0,-3.498899937E-1,3.456625938E-1,1.740592003E0,1.808747124E0
2.795499342E0,-2.969806194E-1,4.030374289E-1,1.561256409E0,1.639560377E0
2.800240853E0,-2.337206006E-1,4.297205210E-1,1.339279175E0,1.425816872E0
2.804982363E0,-1.878718138E-1,4.719246626E-1,1.155848503E0,1.262534937E0
2.809723926E0,-2.631734014E-1,5.109765530E-1,1.118349075E0,1.257402852E0
2.814465436E0,-3.453931808E-1,5.136443377E-1,1.226461411E0,1.373802950E0
2.819206947E0,-5.026144385E-1,5.131750107E-1,1.491912842E0,1.655830243E0
2.823948457E0,-6.600464582E-1,4.681700468E-1,1.876326561E0,2.043390781E0
2.828690020E0,-7.170242667E-1,4.633820057E-1,2.363015175E0,2.512506199E0
2.833431530E0,-7.092729807E-1,4.330137968E-1,2.880326271E0,2.997807288E0
2.838173040E0,-7.460758090E-1,3.881341219E-1,3.275403023E0,3.381647848E0
2.842914551E0,-7.573747635E-1,3.424926996E-1,3.598737717E0,3.693484931E0
2.847656113E0,-7.855111361E-1,2.714924812E-1,3.893590927E0,3.981304588E0
2.852397624E0,-7.510384917E-1,2.414817810E-1,4.124275208E0,4.199049685E0
2.857139134E0,-6.775110960E-1,2.569152117E-1,4.279001236E0,4.339916853E0
2.861880645E0,-5.746082664E-1,2.747489214E-1,4.279052734E0,4.326193932E0
2.866622155E0,-5.690388083E-1,2.786133289E-1,4.232213020E0,4.279375843E0
2.871363717E0,-6.749675274E-1,2.286086082E-1,4.200600624E0,4.260620690E0
2.876105228E0,-7.062584162E-1,2.042770386E-1,4.210423470E0,4.274131005E0
2.880846738E0,-7.115396857E-1,1.320917606E-1,4.137269020E0,4.200087130E0
2.885588249E0,-6.409615874E-1,9.396338463E-2,4.036172867E0,4.087829777E0
2.890329811E0,-5.136842132E-1,4.465031624E-2,4.002761841E0,4.035835412E0
2.895071322E0,-3.224349022E-1,-2.277493477E-2,4.022555351E0,4.035521592E0
2.899812832E0,-8.106693625E-2,-8.413743973E-2,4.049998283E0,4.051683237E0
2.904554342E0,2.448952198E-1,-1.891758442E-1,3.998908043E0,4.010863586E0
2.909295853E0,4.869278669E-1,-3.254525661E-1,3.955338478E0,3.998464780E0
2.914037415E0,6.485148668E-1,-5.093095303E-1,3.986115456E0,4.070513992E0
2.918778926E0,7.090080380E-1,-6.952722073E-1,4.067243576E0,4.186713048E0
2.923520436E0,6.544761658E-1,-8.881590366E-1,4.208273888E0,4.350486713E0
2.928261947E0,4.921992421E-1,-1.090545893E0,4.423588753E0,4.582541641E0
2.933003457E0,2.218289822E-1,-1.247528076E0,4.574576378E0,4.746818243E0
2.937745020E0,-8.586553484E-2,-1.380729675E0,4.678207397E0,4.878464080E0
2.942486530E0,-3.894611299E-1,-1.464196920E0,4.789733887E0,5.023654377E0
2.947228040E0,-6.622067094E-1,-1.572643876E0,4.976309776E0,5.260740012E0
2.951969551E0,-8.465717435E-1,-1.692265511E0,5.085057259E0,5.425703051E0
2.956711061E0,-8.950068951E-1,-1.763754964E0,4.972822189E0,5.351712758E0
2.961452572E0,-7.622813582E-1,-1.789677620E0,4.678174973E0,5.066491876E0
2.966194134E0,-5.049503446E-1,-1.784198046E0,4.163005829E0,4.557296901E0
2.970935645E0,-1.263719499E-1,-1.710826993E0,3.472770691E0,3.873375161E0
2.975677155E0,3.392949402E-1,-1.573479772E0,2.612117767E0,3.068243615E0
2.980418665E0,8.639045954E-1,-1.420761108E0,1.700189590E0,2.378137490E0
2.985160176E0,1.407646418E0,-1.308162451E0,6.502866745E-1,2.028701603E0
2.989901738E0,1.909901142E0,-1.154697657E0,-3.254270554E-1,2.255427192E0
2.994643249E0,2.334059238E0,-1.020650148E0,-1.244582176E0,2.835232627E0
2.999384759E0,2.648676157E0,-9.093377590E-1,-2.067236900E0,3.480782807E0
3.004126270E0,2.798463345E0,-7.981290817E-1,-2.760546684E0,4.011112703E0
3.008867780E0,2.909325123E0,-6.795341969E-1,-3.257971764E0,4.420443350E0
3.013609290E0,2.555693626E0,-2.816774845E-1,-3.416151047E0,4.275628619E0
3.018350853E0,3.134283066E0,2.527832985E-2,-2.723386765E0,4.152252979E0
3.023092363E0,3.259168625E0,-1.612887383E-1,-3.205270290E0,4.574052013E0
3.027833874E0,2.836492538E0,-4.500184059E-1,-3.418214321E0,4.464571159E0
3.032575384E0,2.599145889E0,-6.245555878E-1,-3.297685623E0,4.245039400E0
3.037316895E0,2.525721788E0,-5.855965614E-1,-3.082870960E0,4.028186595E0
3.042058405E0,2.457331657E0,-4.467768669E-1,-2.706527710E0,3.682849534E0
3.046799915E0,2.261651516E0,-3.955893517E-1,-2.304706097E0,3.253187469E0
3.051541478E0,1.994484901E0,-3.513815403E-1,-2.013345242E0,2.855695724E0
3.056282988E0,1.712907195E0,-3.436219692E-1,-1.846315384E0,2.541851218E0
3.061024499E0,1.346986532E0,-2.749478817E-1,-1.784062862E0,2.252298682E0
3.065766009E0,4.060761034E-1,1.717672348E-1,-1.725814819E0,1.781246354E0
3.070507520E0,7.526934147E-2,5.181264877E-2,-1.913125515E0,1.915306571E0
3.075249030E0,-1.976999044E-1,-1.721184254E-1,-2.121232033E0,2.137366450E0
3.079990540E0,2.749280334E-1,-3.319079876E-1,-2.383876324E0,2.422522376E0
3.084732051E0,7.322914004E-1,-3.863246441E-1,-2.717960835E0,2.841268823E0
3.089473613E0,7.225395441E-1,-4.046647549E-1,-3.180842876E0,3.286879730E0
3.094215124E0,4.106211066E-1,-4.057979584E-1,-3.291837215E0,3.342076290E0
3.098956634E0,2.070378065E-1,-3.365952969E-1,-3.273891449E0,3.297654662E0
3.103698145E0,1.792842150E-1,-2.541027069E-1,-3.213346958E0,3.228360217E0
3.108439655E0,2.642754912E-1,-2.441043854E-1,-3.265804768E0,3.285560723E0
3.113181165E0,2.986524701E-1,-2.777099609E-1,-3.318830013E0,3.343792574E0
3.117922676E0,3.325754404E-1,-3.621327877E-1,-3.310238361E0,3.346554136E0
3.122664186E0,3.924666643E-1,-3.565218449E-1,-3.237618446E0,3.280748560E0
3.127405697E0,5.092332959E-1,-3.928453922E-1,-3.189391136E0,3.253592149E0
3.132147207E0,5.873917937E-1,-4.211611748E-1,-3.160594940E0,3.242185410E0
3.136888717E0,7.011852860E-1,-4.133195877E-1,-3.079287529E0,3.185044046E0
3.141630280E0,6.537950635E-1,-4.103379250E-1,-3.112844467E0,3.207121119E0
3.146371790E0,4.941558838E-1,-4.082136154E-1,-3.014775276E0,3.082158068E0
3.151113301E0,4.053090215E-1,-3.933045864E-1,-2.911879539E0,2.966143347E0
3.155854811E0,3.392019272E-1,-3.995919228E-1,-2.811199665E0,2.859645994E0
3.160596322E0,2.552143931E-1,-3.867938519E-1,-2.662409782E0,2.702437737E0
3.165337832E0,1.818020344E-1,-4.294986725E-1,-2.613677979E0,2.654963967E0
3.170079342E0,1.640241146E-1,-4.941027164E-1,-2.722291946E0,2.771626751E0
3.174820853E0,1.541602612E-1,-5.108699799E-1,-3.002472878E0,3.049524045E0
3.179562363E0,1.559764743E-1,-5.674815178E-1,-3.215038300E0,3.268460678E0
3.184303874E0,1.901869178E-1,-5.556597710E-1,-3.407938957E0,3.458175354E0
3.189045436E0,2.275849581E-1,-5.896811485E-1,-3.447316647E0,3.504783992E0
3.193786947E0,2.769773602E-1,-6.212897301E-1,-3.395508289E0,3.462974723E0
3.198528457E0,3.946571946E-1,-6.072511673E-1,-3.288440704E0,3.367246731E0
3.203269967E0,6.221073270E-1,-5.429246426E-1,-3.142803669E0,3.249461432E0
3.208011478E0,8.782021403E-1,-4.188826084E-1,-2.939475060E0,3.096322862E0
3.212752988E0,1.086237192E0,-3.764266968E-1,-2.750204563E0,2.980810869E0
3.217494499E0,1.247098446E0,-3.507661819E-1,-2.596691132E0,2.901912521E0
3.222236009E0,1.488559723E0,-3.184211254E-1,-3.149596691E0,3.498165430E0
3.226977520E0,1.603200197E0,-2.351834774E-1,-3.445102692E0,3.807137336E0
3.231719030E0,1.511533737E0,-3.886711597E-1,-1.937511444E0,2.487920840E0
3.236460540E0,1.709382296E0,-3.421921730E-1,-1.799161911E0,2.505207955E0
3.241202051E0,1.489340305E0,-1.435773373E-1,-1.847395897E0,2.377313735E0
3.245943561E0,1.050486207E0,4.896378517E-2,-1.496179104E0,1.828789390E0
3.250685072E0,6.974120140E-1,1.947867870E-1,-1.286567688E0,1.476340687E0
3.255426582E0,2.589483261E-1,2.949261665E-1,-1.278603554E0,1.337483730E0
3.260168092E0,-1.688889265E-1,3.505065441E-1,-1.300195217E0,1.357160974E0
3.264909603E0,-4.779796600E-1,4.247241020E-1,-1.291793346E0,1.441383075E0
3.269651113E0,-6.465260983E-1,5.397849083E-1,-1.279916286E0,1.532171480E0
3.274392624E0,-6.549535990E-1,6.696271896E-1,-1.145044327E0,1.479355028E0
3.279134134E0,-5.932804346E-1,8.166635036E-1,-9.159154892E-1,1.363019492E0
3.283875697E0,-6.615092754E-1,8.847966194E-1,-4.919862747E-1,1.209342827E0
3.288617207E0,-8.082199097E-1,8.446586132E-1,7.426357269E-2,1.171402012E0
3.293358665E0,-9.198257923E-1,7.743046284E-1,7.472248077E-1,1.415617201E0
3.298100176E0,-9.549543262E-1,7.344551086E-1,1.508187294E0,1.930282618E0
3.302841738E0,-8.726083040E-1,7.426397800E-1,2.195006371E0,2.476088056E0
3.307583249E0,-7.921798229E-1,6.782963276E-1,2.614471436E0,2.814799401E0
3.312324759E0,-7.922840118E-1,6.270418167E-1,2.857999802E0,3.031345949E0
3.317066217E0,-8.035168052E-1,5.506842136E-1,2.932971001E0,3.090503398E0
3.321807780E0,-9.027630091E-1,4.782454967E-1,2.913589478E0,3.087507644E0
3.326549290E0,-1.028402925E0,4.292895794E-1,2.840418816E0,3.051209787E0
3.331290801E0,-1.162158251E0,4.760963917E-1,2.753897667E0,3.026752704E0
3.336032311E0,-1.312556028E0,5.262033939E-1,2.534081459E0,2.901941106E0
3.340773822E0,-1.409445047E0,6.023001671E-1,2.266682625E0,2.736265878E0
3.345515332E0,-1.396905780E0,7.103538513E-1,1.965573311E0,2.513847010E0
3.350256842E0,-1.163282752E0,8.706779480E-1,1.702059746E0,2.237926323E0
3.354998353E0,-6.987429857E-1,1.103388548E0,1.540352821E0,2.019503618E0
3.359739863E0,-9.784096479E-2,1.315946817E0,1.582994461E0,2.060863980E0
3.364481374E0,3.659995794E-1,1.463281155E0,1.813035965E0,2.358441613E0
3.369222884E0,8.357819319E-1,1.581278324E0,2.261498451E0,2.883287676E0
3.373964395E0,6.976320744E-1,1.272394180E0,2.880563736E0,3.225418562E0
3.378705905E0,4.188461304E-1,9.304964542E-1,3.684760094E0,3.823442517E0
3.383447415E0,-8.623433113E-2,5.760698318E-1,4.478164673E0,4.515888799E0
3.388188874E0,-8.722916245E-1,1.104106903E-1,5.072160721E0,5.147805122E0
3.392930384E0,-1.836529970E0,-3.685910702E-1,5.555548668E0,5.862834017E0
3.397671895E0,-2.711591005E0,-7.033183575E-1,5.926095963E0,6.554845219E0
3.402413405E0,-3.398773670E0,-9.371783733E-1,6.193428993E0,7.126607079E0
3.407154915E0,-3.795102358E0,-1.056304693E0,6.424547195E0,7.536138811E0
3.411896426E0,-3.852668047E0,-1.120864511E0,6.612204552E0,7.734380219E0
3.416637936E0,-3.673888206E0,-1.236387730E0,6.737249374E0,7.772814053E0
3.421379447E0,-3.343854427E0,-1.309710979E0,6.747103691E0,7.643305142E0
3.426120957E0,-2.959334850E0,-1.446253896E0,6.617986679E0,7.392365032E0
3.430862467E0,-2.575753212E0,-1.538615823E0,6.479265213E0,7.140218551E0
3.435603978E0,-2.126092434E0,-1.601546407E0,6.295237541E0,6.834854470E0
3.440345488E0,-1.695611477E0,-1.580622435E0,6.059085846E0,6.487371336E0
3.445086999E0,-1.366385221E0,-1.450261712E0,5.776028633E0,6.110055186E0
3.449828509E0,-1.145791769E0,-1.289857984E0,5.365157127E0,5.635732729E0
3.454570020E0,-1.022033691E0,-1.104399562E0,4.951195717E0,5.174803405E0
3.459311530E0,-9.161365032E-1,-9.203519821E-1,4.505663872E0,4.689068222E0
3.464053040E0,-6.582583189E-1,-7.018191814E-1,4.090889931E0,4.202527169E0
3.468794551E0,-8.766175508E-1,-7.598699331E-1,3.608865738E0,3.790748285E0
3.473536061E0,-1.070215344E0,-8.029779196E-1,3.241517067E0,3.506788747E0
3.478277572E0,-1.144767761E0,-6.786093712E-1,2.895587921E0,3.186759061E0
3.483019082E0,-1.190338612E0,-4.924781322E-1,2.597454071E0,2.899346197E0
3.487760540E0,-1.249147654E0,-3.736341000E-1,2.196423531E0,2.554260877E0
3.492502051E0,-1.375715971E0,-3.331189156E-1,1.690052032E0,2.204504143E0
3.497243561E0,-1.500276208E0,-3.002357483E-1,1.044706345E0,1.852668765E0
3.501985072E0,-1.610751152E0,-2.136137486E-1,3.223323822E-1,1.656516910E0
3.506726582E0,-1.707673788E0,-8.131122589E-2,-3.459033966E-1,1.744250682E0
3.511468092E0,-1.813973188E0,5.464148521E-2,-8.480453491E-1,2.003163831E0
3.516209603E0,-1.833921909E0,1.278061867E-1,-1.196518898E0,2.193458790E0
3.520951113E0,-1.751669407E0,1.813549995E-1,-1.439551353E0,2.274542470E0
3.525692624E0,-1.530109882E0,1.988012791E-1,-1.689977646E0,2.288401766E0
3.530434134E0,-1.250886679E0,1.588675976E-1,-1.981564522E0,2.348734628E0
3.535175645E0,-9.753693342E-1,8.367609978E-2,-2.343307972E0,2.539574626E0
3.539917155E0,-6.805500388E-1,2.627968788E-2,-2.660635471E0,2.746419503E0
3.544658613E0,-3.956663013E-1,-4.438519478E-2,-2.883527756E0,2.910885464E0
3.549400124E0,-1.089034677E-1,-1.069321632E-1,-3.081464291E0,3.085241745E0
3.554141634E0,1.944461465E-1,-1.497285366E-1,-3.225687027E0,3.235009233E0
3.558883145E0,4.553974271E-1,-2.614483833E-1,-3.373526573E0,3.414150497E0
3.563624655E0,5.964877605E-1,-3.631591797E-1,-3.517662525E0,3.586311738E0
3.568366165E0,6.502178907E-1,-4.813895226E-1,-3.622045517E0,3.711298008E0
3.573107676E0,7.182499170E-1,-5.543756485E-1,-3.631492615E0,3.743120879E0
3.577849186E0,8.135603666E-1,-5.803594589E-1,-3.550630569E0,3.688587130E0
3.582590697E0,1.025796175E0,-5.695641041E-1,-3.453399181E0,3.647276651E0
3.587332155E0,1.296889424E0,-5.560612679E-1,-3.365797997E0,3.649619496E0
3.592073665E0,1.720548153E0,-4.920740128E-1,-3.285202980E0,3.740986688E0
3.596815176E0,1.884899378E0,-5.046784878E-1,-3.266376019E0,3.804833549E0
3.601556686E0,1.807459354E0,-5.943779945E-1,-3.206213474E0,3.728270291E0
3.606298197E0,1.809393644E0,-4.530091286E-1,-3.154831886E0,3.664981154E0
3.611039707E0,1.711298466E0,-2.629067898E-1,-3.136005878E0,3.582205367E0
3.615781217E0,1.340646505E0,-2.133307457E-1,-3.010923386E0,3.302802249E0
3.620522728E0,7.293652892E-1,-2.447772026E-1,-2.688825130E0,2.796724904E0
3.625264186E0,1.618626714E-1,-2.642893791E-1,-2.437818050E0,2.457438758E0
3.630005697E0,-2.884292006E-1,-2.192304134E-1,-2.379997730E0,2.407414084E0
3.634747207E0,-6.142076850E-1,-1.667652130E-1,-2.371939182E0,2.455841445E0
3.639488717E0,-8.100337982E-1,-1.447806358E-1,-2.344528198E0,2.484739153E0
3.644230228E0,-8.745146394E-1,-1.100268364E-1,-2.231005669E0,2.398805547E0
3.648971738E0,-8.415599465E-1,-1.198284626E-1,-2.057858944E0,2.226514190E0
3.653713249E0,-7.569332719E-1,-1.526367664E-1,-1.892142773E0,2.043636522E0
3.658454707E0,-6.873677969E-1,-1.677465439E-1,-1.767309189E0,1.903679374E0
3.663196217E0,-5.030616522E-1,-1.696882248E-1,-1.704845905E0,1.785599250E0
3.667937728E0,-3.057475090E-1,-1.963837147E-1,-1.654447556E0,1.693884535E0
3.672679238E0,-1.560543180E-1,-1.854667664E-1,-1.525135994E0,1.544276747E0
3.677420749E0,-2.572661638E-2,-1.369602680E-1,-1.338349342E0,1.345584979E0
3.682162259E0,5.617392063E-2,-9.881520271E-2,-1.053292274E0,1.059407650E0
3.686903717E0,6.965285540E-2,2.850294113E-3,-7.631130219E-1,7.662904988E-1
3.691645228E0,1.277099848E-1,1.056761742E-1,-5.753173828E-1,5.987214586E-1
3.696386738E0,2.278827429E-1,1.762893200E-1,-5.113143921E-1,5.868993750E-1
3.701128249E0,3.106162548E-1,2.221274376E-1,-5.948934555E-1,7.069096687E-1
3.705869759E0,3.644759655E-1,2.674136162E-1,-6.848220825E-1,8.205693488E-1
3.710611270E0,1.307394505E-1,2.211122513E-1,-6.184701920E-1,6.696930714E-1
3.715352728E0,-2.790935040E-1,1.905150414E-1,-3.672885895E-1,4.990892434E-1
3.720094238E0,-6.845546365E-1,2.874565125E-1,-1.513385773E-2,7.426138502E-1
3.724835749E0,-1.171616316E0,3.750326633E-1,2.943534851E-1,1.264902472E0
3.729577259E0,-1.819346309E0,4.027085304E-1,7.427978516E-1,2.005977019E0
3.734318770E0,-2.252494574E0,3.246974945E-1,1.210333824E0,2.577609015E0
3.739060228E0,-2.217323065E0,2.531394958E-1,1.548635483E0,2.716408113E0
3.743801738E0,-1.900859952E0,2.069699764E-1,1.801017761E0,2.626741347E0
3.748543249E0,-1.361747026E0,1.222815514E-1,1.859947205E0,2.308400170E0
3.753284759E0,-8.299064636E-1,4.573035240E-2,1.715952873E0,1.906654207E0
3.758026270E0,-3.199317455E-1,-1.679039001E-2,1.529322624E0,1.562519097E0
3.762767728E0,2.130105495E-1,-3.124976158E-2,1.488977432E0,1.504461311E0
3.767509238E0,7.053904533E-1,2.365088463E-2,1.513614655E0,1.670079153E0
3.772250749E0,1.040771842E0,4.468917847E-2,1.529232025E0,1.850338817E0
3.776992259E0,1.164718628E0,8.189964294E-2,1.571836472E0,1.958046712E0
3.781733770E0,1.095061421E0,1.140160561E-1,1.567243576E0,1.915309793E0
3.786475228E0,9.359356761E-1,1.440069675E-1,1.457983017E0,1.738513179E0
3.791216738E0,7.529140711E-1,1.174347401E-1,1.325318336E0,1.528770490E0
3.795958249E0,6.183834076E-1,1.301994324E-1,1.257709503E0,1.407545070E0
3.800699759E0,4.995339215E-1,1.534581184E-1,1.274315834E0,1.377303299E0
3.805441217E0,3.321675062E-1,2.372164726E-1,1.348863602E0,1.409269287E0
3.810182728E0,3.479963541E-2,2.734098434E-1,1.467113495E0,1.492777935E0
3.814924238E0,-1.222102046E-1,3.715252876E-1,1.837347031E0,1.878512839E0
3.819665749E0,-4.672901630E-1,3.940315247E-1,2.383280754E0,2.460416244E0
3.824407259E0,-1.293599010E0,3.226613998E-1,3.423396111E0,3.673846718E0
3.829148717E0,-2.027683258E0,3.540658951E-1,4.584712029E0,5.025579214E0
3.833890228E0,-2.231626987E0,4.965009689E-1,5.224027634E0,5.702379937E0
3.838631738E0,-2.021188259E0,5.682039261E-1,5.382334709E0,5.777333693E0
3.843373249E0,-1.776584506E0,4.053635597E-1,5.310899734E0,5.614822180E0
3.848114707E0,-1.703646660E0,5.620479584E-3,4.949503899E0,5.234504024E0
3.852856217E0,-1.300561309E0,-2.864365578E-1,4.386022568E0,4.583742967E0
3.857597728E0,-7.631084919E-1,-3.950133324E-1,3.741766930E0,3.839165255E0
3.862339238E0,-4.570982456E-1,-5.244188309E-1,3.085293770E0,3.162750632E0
3.867080697E0,-3.630207777E-1,-6.971659660E-1,2.513796806E0,2.633818303E0
3.871822207E0,-5.595684052E-1,-8.595771790E-1,2.045578003E0,2.288313591E0
3.876563717E0,-1.006622791E0,-9.584741592E-1,1.636851311E0,2.147380817E0
3.881305228E0,-1.362976909E0,-1.015299797E0,1.325405121E0,2.155281528E0
3.886046686E0,-1.550783634E0,-1.049468994E0,1.130110741E0,2.187113471E0
3.890788197E0,-1.613825440E0,-1.116567612E0,1.058143616E0,2.229534412E0
3.895529707E0,-1.597920299E0,-1.155085087E0,1.102487564E0,2.258993065E0
3.900271217E0,-1.512815714E0,-1.187196255E0,1.131800652E0,2.231371562E0
3.905012676E0,-1.281617999E0,-1.215912342E0,1.211080551E0,2.141892532E0
3.909754186E0,-9.301022291E-1,-1.256397724E0,1.276306152E0,2.018064120E0
3.914495697E0,-4.621750116E-1,-1.247334719E0,1.368835449E0,1.908706402E0
3.919237207E0,8.492803574E-2,-1.187026024E0,1.393553734E0,1.832548925E0
3.923978665E0,6.981223226E-1,-1.092557907E0,1.262450218E0,1.809651378E0
3.928720176E0,1.273445249E0,-1.042876720E0,1.033273697E0,1.943427176E0
3.933461686E0,1.725672960E0,-1.071344376E0,7.970638275E-1,2.181979991E0
3.938203145E0,2.136885643E0,-1.053363800E0,5.131359100E-1,2.437040010E0
3.942944655E0,2.502653122E0,-9.891357422E-1,2.868614197E-1,2.706280037E0
3.947686165E0,2.818808556E0,-8.882780075E-1,6.560134888E-2,2.956183862E0
3.952427676E0,2.999852657E0,-8.560252190E-1,-1.051931381E-1,3.121371612E0
3.957169134E0,3.017692089E0,-7.916636467E-1,-2.352514267E-1,3.128664269E0
3.961910645E0,2.936791658E0,-6.685538292E-1,-4.444775581E-1,3.044547547E0
3.966652155E0,2.847388268E0,-5.605988503E-1,-7.163252831E-1,2.989149198E0
3.971393613E0,2.665087223E0,-4.794878960E-1,-9.911875725E-1,2.883583075E0
3.976135124E0,2.379835606E0,-4.271440506E-1,-1.271808624E0,2.731952914E0
3.980876634E0,1.981530190E0,-3.864445686E-1,-1.510663509E0,2.521488754E0
3.985618092E0,1.569855452E0,-3.883333206E-1,-1.684080601E0,2.334818275E0
3.990359603E0,1.179731607E0,-3.730196953E-1,-1.813742638E0,2.195580268E0
3.995101113E0,9.036678076E-1,-3.550834656E-1,-1.870954037E0,2.107882535E0
3.999842624E0,6.406736374E-1,-3.754224777E-1,-1.838952541E0,1.983217385E0
4.004584082E0,3.831803799E-1,-3.864631653E-1,-1.789428711E0,1.870357210E0
4.009325592E0,1.954476833E-1,-4.793310165E-1,-1.805952072E0,1.878675306E0
4.014067103E0,1.565221548E-1,-6.040873528E-1,-1.811644077E0,1.916109333E0
4.018808561E0,2.781515121E-1,-6.940693855E-1,-1.844558239E0,1.990350641E0
4.023550072E0,1.264256835E-1,-9.439702034E-1,-1.818062305E0,2.052416562E0
4.028291582E0,1.921087503E-1,-1.079416275E0,-1.741250515E0,2.057668249E0
4.033033040E0,3.350499868E-1,-1.139629841E0,-1.582446098E0,1.978673880E0
4.037774551E0,5.516759157E-1,-1.245025635E0,-1.393737316E0,1.948573543E0
4.042516061E0,8.813766837E-1,-1.393584728E0,-1.382801056E0,2.151985598E0
4.047257520E0,1.208021998E0,-1.468156099E0,-1.506224632E0,2.425595210E0
4.051999030E0,1.437179089E0,-1.533023596E0,-1.704177856E0,2.705525318E0
4.056740540E0,1.629736423E0,-1.561280727E0,-1.976857185E0,3.000267097E0
4.061481999E0,1.755389810E0,-1.535420179E0,-2.271997452E0,3.255899404E0
4.066223509E0,1.673047543E0,-1.538585901E0,-2.609085083E0,3.460297621E0
4.070965020E0,1.487405539E0,-1.538960457E0,-2.933574677E0,3.631340649E0
4.075706478E0,1.264528275E0,-1.459550858E0,-3.255437374E0,3.785127866E0
4.080447988E0,9.817824960E-1,-1.421997547E0,-3.429181576E0,3.839955751E0
4.085189499E0,6.430087090E-1,-1.423894167E0,-3.431160450E0,3.770118941E0
4.089930957E0,3.286333084E-1,-1.422654152E0,-3.134652138E0,3.458032491E0
4.094672467E0,1.167232990E-1,-1.483884811E0,-2.663822174E0,3.051472929E0
4.099413978E0,3.983259201E-3,-1.503446341E0,-2.113928318E0,2.594043118E0
4.104155436E0,-7.483506203E-2,-1.587755680E0,-1.599216461E0,2.254786393E0
4.108896947E0,-6.963884830E-2,-1.625101805E0,-1.248326302E0,2.050396059E0
4.113638405E0,-2.408719063E-2,-1.709254265E0,-1.077580929E0,2.020720414E0
4.118379915E0,6.388914585E-2,-1.737573862E0,-1.079471588E0,2.046583411E0
4.123121426E0,1.729134321E-1,-1.748261213E0,-1.234699249E0,2.147277011E0
4.127862884E0,2.865296602E-1,-1.688117027E0,-1.505136490E0,2.279753100E0
4.132604395E0,3.741529584E-1,-1.582610607E0,-1.891123772E0,2.494192432E0
4.137345905E0,3.859810829E-1,-1.473614216E0,-2.357343674E0,2.806704375E0
4.142087363E0,3.294977546E-1,-1.340572357E0,-2.909339428E0,3.220242060E0
4.146828874E0,3.649213314E-1,-1.213307858E0,-3.488049030E0,3.711033491E0
4.151570384E0,3.676474690E-1,-1.069291592E0,-3.909989357E0,4.070204656E0
4.156311842E0,3.689365983E-1,-9.438700676E-1,-4.180484772E0,4.301564581E0
4.161053353E0,4.818370342E-1,-8.414216042E-1,-4.302288532E0,4.410197712E0
4.165794811E0,6.493452787E-1,-7.333526611E-1,-4.258716106E0,4.369910559E0
4.170536322E0,8.404309750E-1,-5.649151802E-1,-4.147851944E0,4.269675530E0
4.175277832E0,9.812694788E-1,-4.060444832E-1,-3.842682362E0,3.986724175E0
4.180019290E0,1.132272959E0,-3.338651657E-1,-3.464932919E0,3.660501077E0
4.184760801E0,1.215130448E0,-3.179187775E-1,-3.033279896E0,3.283047560E0
4.189502259E0,1.211301088E0,-3.540358543E-1,-2.635768890E0,2.922305486E0
4.194243770E0,1.243182659E0,-3.805150986E-1,-2.283932686E0,2.628049348E0
4.198985280E0,1.275165081E0,-3.739805222E-1,-1.879314899E0,2.301680235E0
4.203726738E0,1.237992406E0,-2.965693474E-1,-1.500652313E0,1.967875997E0
4.208468249E0,1.172239304E0,-2.514433861E-1,-1.145378113E0,1.658089196E0
4.213209707E0,1.082166910E0,-2.218942642E-1,-8.660840988E-1,1.403717903E0
4.217951217E0,1.031702638E0,-1.408195496E-1,-6.652269363E-1,1.235624277E0
4.222692728E0,9.172136188E-1,-9.408426285E-2,-5.573244095E-1,1.077377913E0
4.227434186E0,7.235209942E-1,-6.210994720E-2,-5.354523659E-1,9.022469233E-1
4.232175697E0,4.423573613E-1,-4.177951813E-2,-6.048874855E-1,7.505427592E-1
4.236917155E0,6.779903173E-2,2.236461639E-2,-5.938014984E-1,5.980778413E-1
4.241658665E0,-2.430961132E-1,1.306309700E-1,-4.978542328E-1,5.692266751E-1
4.246400176E0,-4.312307835E-1,2.640547752E-1,-3.819265366E-1,6.336819330E-1
4.251141634E0,-5.115418434E-1,3.173775673E-1,-2.245559692E-1,6.425176738E-1
4.255883145E0,-5.940251350E-1,3.381977081E-1,4.617691040E-2,6.851101064E-1
4.260624603E0,-6.639627218E-1,3.596739769E-1,3.323936462E-1,8.250438786E-1
4.265366113E0,-6.345322728E-1,4.053549767E-1,6.272497177E-1,9.799928932E-1
4.270107572E0,-4.354991317E-1,4.796471596E-1,8.976211548E-1,1.106998026E0
4.274849082E0,-5.115509033E-2,5.821418762E-1,1.148750305E0,1.288849592E0
4.279590592E0,2.569161057E-1,6.742973328E-1,1.352313995E0,1.532786978E0
4.284332051E0,4.951927066E-1,7.345962524E-1,1.441584587E0,1.692044205E0
4.289073561E0,6.794410348E-1,7.848019600E-1,1.514725685E0,1.836286507E0
4.293815020E0,7.700354457E-1,8.224239349E-1,1.619718552E0,1.973024050E0
4.298556530E0,7.128174305E-1,7.825365067E-1,1.888321877E0,2.164770561E0
4.303297988E0,5.970798731E-1,6.744060516E-1,2.222585678E0,2.398169092E0
4.308039499E0,4.592201114E-1,5.406103134E-1,2.555857658E0,2.652461308E0
4.312781009E0,2.658700347E-1,4.667744637E-1,2.890853882E0,2.940340361E0
4.317522467E0,8.860212564E-2,4.449987411E-1,3.251898766E0,3.283400645E0
4.322263978E0,-8.035767078E-2,5.104117393E-1,3.507864952E0,3.545714882E0
4.327005436E0,-3.111663461E-1,6.315150261E-1,3.733183861E0,3.798986373E0
4.331746947E0,-6.334110498E-1,7.674083710E-1,3.894504547E0,4.019613269E0
4.336488405E0,-1.019988537E0,9.323401451E-1,4.054024696E0,4.283077282E0
4.341229915E0,-1.554308534E0,1.097746849E0,4.132551193E0,4.549604656E0
4.345971374E0,-2.030390739E0,1.256877422E0,4.046004295E0,4.698124963E0
4.350712884E0,-2.529058933E0,1.326698780E0,3.770055771E0,4.729650014E0
4.355454342E0,-3.058481932E0,1.346559048E0,3.301779747E0,4.697795493E0
4.360195853E0,-3.539980412E0,1.353514194E0,2.786472321E0,4.704029122E0
4.364937311E0,-3.937516689E0,1.360744476E0,2.151656151E0,4.688847129E0
4.369678822E0,-4.236614227E0,1.369610310E0,1.343940735E0,4.650904128E0
4.374420280E0,-4.429878235E0,1.393559456E0,4.844551086E-1,4.669103328E0
4.379161790E0,-4.452253342E0,1.402845860E0,-3.559231758E-1,4.681582813E0
4.383903301E0,-4.278876305E0,1.329386711E0,-9.795298576E-1,4.586450719E0
4.388644759E0,-3.989769459E0,1.226810932E0,-1.470829964E0,4.425682567E0
4.393386270E0,-3.561934471E0,1.085693359E0,-1.600338936E0,4.053047243E0
4.398127728E0,-2.893806696E0,9.583959579E-1,-1.518792152E0,3.405784727E0
4.402869238E0,-2.082865238E0,8.709793091E-1,-1.336173534E0,2.623412333E0
4.407610697E0,-1.288884640E0,7.655372620E-1,-1.009140968E0,1.807107193E0
4.412352207E0,-5.831778049E-1,6.630945206E-1,-5.637207031E-1,1.047650575E0
4.417093665E0,-1.634955406E-3,5.843858719E-1,-9.513187408E-2,5.920807325E-1
4.421835176E0,3.666655421E-1,4.592590332E-1,3.229598999E-1,6.705710822E-1
4.426576634E0,6.022155285E-1,2.988276482E-1,8.585090637E-1,1.090412453E0
4.431318145E0,7.015325427E-1,2.145409584E-1,1.425822258E0,1.603478981E0
4.436059603E0,6.875401139E-1,9.065437317E-2,1.900964737E0,2.023510948E0
4.440801113E0,5.832286477E-1,-1.020703316E-1,2.274743080E0,2.350538255E0
4.445542572E0,4.594061375E-1,-3.376283646E-1,2.466085434E0,2.531131028E0
4.450284082E0,3.201531768E-1,-5.732741356E-1,2.520766258E0,2.604880769E0
4.455025540E0,2.487438321E-1,-7.710580826E-1,2.520380020E0,2.647398630E0
4.459767051E0,2.139209509E-1,-8.833317757E-1,2.462670326E0,2.625029968E0
4.464508509E0,1.586905718E-1,-9.459533691E-1,2.264002800E0,2.458804415E0
4.469250020E0,7.682895660E-2,-9.753327370E-1,1.965095520E0,2.195171301E0
4.473991478E0,-9.269988537E-2,-1.045430183E0,1.652187347E0,1.957355504E0
4.478732988E0,-2.866022587E-1,-1.141982555E0,1.476169586E0,1.888211233E0
4.483474447E0,-5.803463459E-1,-1.205893993E0,1.447029114E0,1.971008742E0
4.488215905E0,-8.509541750E-1,-1.214250088E0,1.553329468E0,2.147407441E0
4.492957415E0,-9.492377043E-1,-1.163564920E0,1.582953453E0,2.181897609E0
4.497698926E0,-9.436261654E-1,-1.093116283E0,1.622772217E0,2.172262235E0
4.502440384E0,-8.905732632E-1,-1.022811413E0,1.599212646E0,2.096841675E0
4.507181895E0,-8.487195969E-1,-9.269223213E-1,1.582180023E0,2.020594855E0
4.511923353E0,-7.814259529E-1,-8.655314445E-1,1.485853195E0,1.888790862E0
4.516664863E0,-6.670638323E-1,-8.050074577E-1,1.252917290E0,1.631812764E0
4.521406322E0,-5.347476006E-1,-7.303709984E-1,8.257761002E-1,1.225276687E0
4.526147780E0,-4.881886244E-1,-6.527457237E-1,3.164844513E-1,8.743955173E-1
4.530889290E0,-4.353470802E-1,-6.474103928E-1,-3.163833618E-1,8.418822534E-1
4.535630749E0,-4.494895935E-1,-6.818852425E-1,-1.001913071E0,1.292609059E0
4.540372259E0,-4.847162962E-1,-6.762204170E-1,-1.568776608E0,1.775748852E0
4.545113717E0,-4.833760262E-1,-6.079516411E-1,-2.123302460E0,2.260900466E0
4.549855228E0,-4.400039911E-1,-5.097036362E-1,-2.625758648E0,2.710721267E0
4.554596686E0,-4.875805378E-1,-4.952363968E-1,-3.132174015E0,3.208349721E0
4.559338197E0,-5.365760326E-1,-5.494608879E-1,-3.576332569E0,3.657864917E0
4.564079655E0,-5.138239861E-1,-6.073093414E-1,-3.865573406E0,3.946580480E0
4.568821165E0,-4.918949604E-1,-6.544928551E-1,-3.973938942E0,4.057402157E0
4.573562624E0,-4.278949499E-1,-6.578264236E-1,-3.992399216E0,4.068793579E0
4.578304082E0,-3.333534002E-1,-6.866574287E-1,-4.028607845E0,4.100280976E0
4.583045592E0,-2.550343275E-1,-7.146353722E-1,-4.089498043E0,4.159295670E0
4.587787051E0,-2.396343946E-1,-7.825551033E-1,-4.057537556E0,4.139254540E0
4.592528561E0,-2.239139080E-1,-8.475079536E-1,-4.018578053E0,4.113073879E0
4.597270020E0,-2.237277031E-1,-8.933463097E-1,-3.902698994E0,4.009885428E0
4.602011530E0,-2.069922686E-1,-9.064998627E-1,-3.644743443E0,3.761481432E0
4.606752988E0,-1.750547886E-1,-8.735752106E-1,-3.291922092E0,3.410356124E0
4.611494447E0,-1.122969389E-1,-8.050308228E-1,-2.948811531E0,3.058786471E0
4.616235957E0,-1.729762554E-2,-7.590451241E-1,-2.624277592E0,2.731900728E0
4.620977415E0,4.416739941E-2,-7.719869614E-1,-2.434978485E0,2.554806226E0
4.625718926E0,5.854749680E-2,-8.059091568E-1,-2.220234394E0,2.362701450E0
4.630460384E0,8.874070644E-2,-7.822790146E-1,-2.020431042E0,2.168404244E0
4.635201895E0,1.016957760E-1,-8.091921806E-1,-1.828102112E0,2.001772052E0
4.639943353E0,5.457663536E-2,-8.416433334E-1,-1.568827629E0,1.781168785E0
4.644684811E0,3.792297840E-2,-8.657064438E-1,-1.385979652E0,1.634571931E0
4.649426322E0,2.927887440E-2,-9.149327278E-1,-1.415851593E0,1.685999669E0
4.654167780E0,-5.345642567E-2,-9.911770821E-1,-1.596425533E0,1.879857463E0
4.658909290E0,-7.469928265E-2,-1.127017021E0,-1.932930946E0,2.238742815E0
4.663650749E0,-1.143459082E-1,-1.252184868E0,-2.296693325E0,2.618366315E0
4.668392207E0,-1.257002354E-1,-1.260700226E0,-2.611794949E0,2.902867283E0
4.673133717E0,-1.815459728E-1,-1.269260168E0,-2.835768700E0,3.112163947E0
4.677875176E0,-2.922445536E-1,-1.227121830E0,-3.028947353E0,3.281121292E0
4.682616686E0,-3.197642565E-1,-1.181504250E0,-3.230136395E0,3.454270198E0
4.687358145E0,-3.100775480E-1,-1.131752491E0,-3.499570370E0,3.691070923E0
4.692099603E0,-2.893692255E-1,-1.048684120E0,-3.650942326E0,3.809573834E0
4.696841113E0,-2.979432344E-1,-9.202980995E-1,-3.615055084E0,3.742237569E0
4.701582572E0,-2.943490148E-1,-7.731471062E-1,-3.458863735E0,3.556421815E0
4.706324082E0,-2.776724100E-1,-6.412167549E-1,-3.203604221E0,3.278923741E0
4.711065540E0,-2.421783209E-1,-5.416693687E-1,-2.834650993E0,2.896083959E0
4.715806999E0,-2.538173199E-1,-4.148254395E-1,-2.576705456E0,2.622196481E0
4.720548509E0,-2.374815345E-1,-3.158359528E-1,-2.333813190E0,2.367030595E0
4.725289967E0,-2.285387516E-1,-2.258367538E-1,-2.079419136E0,2.104095089E0
4.730031478E0,-2.674277425E-1,-1.116390228E-1,-1.801387787E0,1.824548938E0
4.734772936E0,-2.728436589E-1,9.790897369E-3,-1.568985462E0,1.592562371E0
4.739514395E0,-2.207742333E-1,1.214895248E-1,-1.286371231E0,1.310821083E0
4.744255905E0,-2.045788169E-1,2.519779205E-1,-9.535083771E-1,1.007235618E0
4.748997363E0,-1.841037273E-1,3.032464981E-1,-8.550949097E-1,9.257645087E-1
4.753738822E0,-2.101765871E-1,3.543686867E-1,-6.705336571E-1,7.869985700E-1
4.758480332E0,-1.470494270E-1,4.460415840E-1,-4.956717491E-1,6.828375440E-1
4.763221790E0,-1.457979679E-1,5.947818756E-1,-3.208584785E-1,6.913556901E-1
4.767963301E0,-1.304936409E-1,6.759114265E-1,-1.435966492E-1,7.032103842E-1
4.772704759E0,-1.709973812E-1,7.157282829E-1,6.481456757E-2,7.387205206E-1
4.777446217E0,-1.597085595E-1,7.407164574E-1,1.799106598E-1,7.788039161E-1
4.782187728E0,-1.206751466E-1,8.086318970E-1,3.020105362E-1,8.715838455E-1
4.786929186E0,-6.831419468E-2,8.430275917E-1,4.358100891E-1,9.514687506E-1
4.791670645E0,-4.579055309E-2,8.653297424E-1,5.981140137E-1,1.052916289E0
4.796412155E0,-1.463221312E-1,9.374895096E-1,8.440284729E-1,1.269913702E0
4.801153613E0,-1.949549913E-1,1.006424904E0,1.164171219E0,1.551190885E0
4.805895124E0,-1.912006736E-1,1.097999573E0,1.494219780E0,1.864095896E0
4.810636582E0,-2.658900023E-1,1.173674107E0,1.834380150E0,2.193891277E0
4.815378040E0,-4.113010168E-1,1.173586845E0,2.014974594E0,2.367825421E0
4.820119551E0,-5.267607570E-1,1.160007954E0,2.095983505E0,2.452802928E0
4.824861009E0,-6.623643637E-1,1.147390366E0,2.170742989E0,2.543099747E0
4.829602467E0,-8.011382818E-1,1.136081219E0,2.229490280E0,2.627380823E0
4.834343978E0,-8.738722801E-1,1.152762413E0,2.260041237E0,2.683337537E0
4.839085436E0,-9.244664311E-1,1.230939388E0,2.295804024E0,2.764157390E0
4.843826895E0,-8.871785402E-1,1.303716660E0,2.310299873E0,2.797185799E0
4.848568405E0,-8.178329468E-1,1.462187767E0,2.241191864E0,2.798175257E0
4.853309863E0,-6.547060013E-1,1.670997143E0,2.097730637E0,2.760678399E0
4.858051322E0,-4.718800783E-1,1.863674164E0,2.032710075E0,2.797831740E0
4.862792780E0,-3.146118522E-1,1.945089817E0,2.002690315E0,2.809470326E0
4.867534290E0,-2.136231661E-1,1.874885559E0,2.088857651E0,2.814987922E0
4.872275749E0,-6.104624271E-2,1.715111732E0,2.317578316E0,2.883834972E0
4.877017259E0,-3.623789549E-2,1.508176327E0,2.777627945E0,3.160874249E0
4.881758717E0,-1.461946368E-1,1.291391850E0,3.354598045E0,3.597553867E0
4.886500176E0,-2.355922461E-1,1.159542084E0,3.931725502E0,4.105911223E0
4.891241686E0,-2.043344080E-1,1.059039116E0,4.354148865E0,4.485747288E0
4.895983145E0,-9.780731797E-2,9.963145256E-1,4.718187332E0,4.823225125E0
4.900724603E0,9.657555819E-2,9.206533432E-1,4.959712029E0,5.045361516E0
4.905466061E0,3.130231798E-1,8.439693451E-1,5.112482071E0,5.191121333E0
4.910207572E0,6.028683782E-1,7.591824532E-1,5.181410789E0,5.271321091E0
4.914949030E0,8.995803595E-1,6.592741013E-1,5.092432022E0,5.213132558E0
4.919690488E0,1.153323412E0,5.900683403E-1,4.910097122E0,5.078128522E0
4.924431999E0,1.335590720E0,5.161046982E-1,4.629479408E0,4.845848349E0
4.929173457E0,1.499366522E0,5.074563026E-1,4.326767921E0,4.607226119E0
4.933914915E0,1.642382503E0,4.955415726E-1,3.944058418E0,4.300997389E0
4.938656426E0,1.704664350E0,4.645318985E-1,3.528656960E0,3.946275506E0
4.943397884E0,1.690616608E0,3.841738701E-1,3.082419395E0,3.536535509E0
4.948139342E0,1.654803038E0,3.221187592E-1,2.724463463E0,3.203878080E0
4.952880801E0,1.613467813E0,2.693424225E-1,2.444678307E0,2.941475097E0
4.957622311E0,1.573329568E0,2.572898865E-1,2.216354370E0,2.730163129E0
4.962363770E0,1.509778976E0,2.479929924E-1,2.005647659E0,2.522608891E0
4.967105228E0,1.405503035E0,2.438950539E-1,1.893735886E0,2.370898391E0
4.971846738E0,1.322360158E0,2.662129402E-1,1.861529350E0,2.298868687E0
4.976588197E0,1.262481213E0,2.834224701E-1,1.930706024E0,2.324180040E0
4.981329655E0,1.228337765E0,3.525347710E-1,1.981842995E0,2.358134026E0
4.986071113E0,1.222455621E0,4.133906364E-1,1.974535942E0,2.358830589E0
4.990812624E0,1.209203124E0,4.752755165E-1,1.964067459E0,2.354914010E0
4.995554082E0,1.193691850E0,5.045814514E-1,1.897940636E0,2.298190882E0
5.000295540E0,1.212227225E0,5.227956772E-1,1.790643692E0,2.224683123E0
5.005037051E0,1.205296040E0,5.085039139E-1,1.603913307E0,2.069747006E0
5.009778509E0,1.168301582E0,4.596114159E-1,1.304190636E0,1.810271928E0
5.014519967E0,1.096703529E0,3.955278397E-1,1.032528400E0,1.557342545E0
5.019261426E0,9.018125534E-1,3.236975670E-1,7.552137375E-1,1.219997453E0
5.024002936E0,6.717095971E-1,2.059588432E-1,4.673795700E-1,8.438343975E-1
5.028744395E0,3.792543113E-1,7.587242126E-2,2.215709686E-1,4.457400039E-1
5.033485853E0,5.470076203E-2,-8.837413788E-2,1.551532745E-2,1.050851417E-1
5.038227311E0,-2.643885016E-1,-2.751588821E-1,-1.553874016E-1,4.120181243E-1
5.042968822E0,-5.118098259E-1,-4.680690765E-1,-3.531379700E-1,7.782958205E-1
5.047710280E0,-6.927431822E-1,-6.507081985E-1,-5.726857185E-1,1.109632015E0
5.052451738E0,-8.119878769E-1,-8.258872032E-1,-7.634868622E-1,1.387200841E0
5.057193197E0,-7.975614071E-1,-9.915785789E-1,-1.042461395E0,1.645010042E0
5.061934707E0,-6.298727989E-1,-1.162433624E0,-1.256214142E0,1.823750434E0
5.066676165E0,-3.823215961E-1,-1.319646358E0,-1.476261616E0,2.016676641E0
5.071417624E0,-1.019217670E-1,-1.487350464E0,-1.735869408E0,2.288196244E0
5.076159082E0,2.503228784E-1,-1.588967323E0,-2.082803249E0,2.631643607E0
5.080900592E0,5.770256519E-1,-1.705713749E0,-2.423783779E0,3.019461178E0
5.085642051E0,8.167546391E-1,-1.815524578E0,-2.811772823E0,3.445182730E0
5.090383509E0,1.012983203E0,-1.886968374E0,-3.163269520E0,3.820086212E0
5.095124967E0,1.168341994E0,-1.919922829E0,-3.404315472E0,4.079275734E0
5.099866478E0,1.323514223E0,-1.885596514E0,-3.599717140E0,4.273772058E0
5.104607936E0,1.421161175E0,-1.879458904E0,-3.756892204E0,4.434670663E0
5.109349395E0,1.437183976E0,-1.865500450E0,-3.885544300E0,4.543461700E0
5.114090853E0,1.423839688E0,-1.812674046E0,-3.980925083E0,4.600094692E0
5.118832363E0,1.416721344E0,-1.771224499E0,-4.004843712E0,4.602511135E0
5.123573822E0,1.432292819E0,-1.726747036E0,-3.993300676E0,4.580345875E0
5.128315280E0,1.395960927E0,-1.710429192E0,-3.965414286E0,4.538588479E0
5.133056738E0,1.357653856E0,-1.691268444E0,-3.885269642E0,4.449599210E0
5.137798197E0,1.324089527E0,-1.685989857E0,-3.786444664E0,4.351199612E0
5.142539707E0,1.294953585E0,-1.630270481E0,-3.726181507E0,4.268385556E0
5.147281165E0,1.236433744E0,-1.648606777E0,-3.646995068E0,4.188943272E0
5.152022624E0,1.186454058E0,-1.664602757E0,-3.522477627E0,4.072643392E0
5.156764082E0,1.072752953E0,-1.652196884E0,-3.369285107E0,3.902900917E0
5.161505592E0,9.571370482E-1,-1.650012493E0,-3.184853077E0,3.712403760E0
5.166247051E0,8.630493879E-1,-1.643975735E0,-3.021651745E0,3.546532071E0
5.170988509E0,8.189916015E-1,-1.624612808E0,-2.917860985E0,3.438608257E0
5.175729967E0,7.961652279E-1,-1.632474422E0,-2.878273964E0,3.403426629E0
5.180471426E0,7.563581467E-1,-1.650563717E0,-2.871883869E0,3.397669082E0
5.185212936E0,7.236016393E-1,-1.623683929E0,-2.898775101E0,3.400418492E0
5.189954395E0,7.531988621E-1,-1.561365128E0,-2.887210846E0,3.367663293E0
5.194695853E0,7.858946919E-1,-1.485074997E0,-2.873133183E0,3.328358830E0
5.199437311E0,8.224065304E-1,-1.428194523E0,-2.815928936E0,3.262751579E0
5.204178770E0,8.515164256E-1,-1.314049244E0,-2.777875900E0,3.188792899E0
5.208920228E0,8.808183670E-1,-1.190376759E0,-2.749475479E0,3.122891806E0
5.213661738E0,9.179850817E-1,-1.054592133E0,-2.742799282E0,3.078605054E0
5.218403197E0,1.011247635E0,-9.687824249E-1,-2.664620399E0,3.010209800E0
5.223144655E0,1.105996370E0,-8.682951927E-1,-2.541336060E0,2.904402431E0
5.227886113E0,1.193176508E0,-7.770934105E-1,-2.380133629E0,2.773550151E0
5.232627572E0,1.244786978E0,-7.356719971E-1,-2.236136436E0,2.662895805E0
5.237369082E0,1.280402780E0,-7.127723694E-1,-2.085480213E0,2.548863168E0
5.242110540E0,1.247449279E0,-6.486182213E-1,-1.865989208E0,2.336397018E0
5.246851999E0,1.243790150E0,-5.099201202E-1,-1.625483990E0,2.109319954E0
5.251593457E0,1.192333937E0,-4.117946625E-1,-1.342306137E0,1.842015425E0
5.256334915E0,1.092222571E0,-3.399858475E-1,-9.566664696E-1,1.491224750E0
5.261076374E0,1.033363819E0,-2.349328995E-1,-6.646246910E-1,1.250903765E0
5.265817884E0,1.020000219E0,-1.588921547E-1,-3.823647499E-1,1.100840573E0
5.270559342E0,9.705259800E-1,-9.747409821E-2,-1.170654297E-1,9.824083634E-1
5.275300801E0,9.974383116E-1,-3.397941589E-2,1.863331795E-1,1.015262449E0
5.280042259E0,1.002533674E0,5.524301529E-2,5.399231911E-1,1.140018689E0
5.284783717E0,9.952116013E-1,9.591674805E-2,8.552479744E-1,1.315710930E0
5.289525176E0,8.986740112E-1,1.382827759E-1,1.077367783E0,1.409772479E0
5.294266686E0,7.964369655E-1,1.560835838E-1,1.230256557E0,1.473840263E0
5.299008145E0,6.428453922E-1,1.566805840E-1,1.289958954E0,1.449756223E0
5.303749603E0,4.259781837E-1,2.096509933E-1,1.356859684E0,1.437525358E0
5.308491061E0,1.675029695E-1,3.055267334E-1,1.452352524E0,1.493563418E0
5.313232520E0,-4.158002138E-2,4.467358589E-1,1.554819107E0,1.618259646E0
5.317973978E0,-3.470861018E-1,5.519866943E-1,1.666601658E0,1.789614249E0
5.322715436E0,-6.340348721E-1,5.807147026E-1,1.754187584E0,1.953561840E0
5.327456947E0,-8.257719874E-1,6.214003563E-1,1.887021542E0,2.151485086E0
5.332198405E0,-9.725533724E-1,6.524314880E-1,2.043590546E0,2.355374541E0
5.336939863E0,-1.083950758E0,6.856408119E-1,2.188097954E0,2.536301485E0
5.341681322E0,-1.112301469E0,7.233104706E-1,2.344543457E0,2.693933298E0
5.346422780E0,-1.060230017E0,7.222266197E-1,2.496292591E0,2.806630663E0
5.351164238E0,-9.804296494E-1,7.753195763E-1,2.672318459E0,2.950194686E0
5.355905697E0,-7.722648382E-1,8.272814751E-1,2.896700382E0,3.109929376E0
5.360647155E0,-4.999698102E-1,9.591021538E-1,3.097901344E0,3.281286256E0
5.365388665E0,-2.635616064E-1,1.093986511E0,3.240246773E0,3.430083141E0
5.370130124E0,-5.547088385E-2,1.262874603E0,3.366981030E0,3.596455274E0
5.374871582E0,1.126053333E-1,1.410648346E0,3.442332745E0,3.721862899E0
5.379613040E0,2.146572620E-1,1.613974094E0,3.411302090E0,3.779943394E0
5.384354499E0,1.720882058E-1,1.739133358E0,3.314502239E0,3.747015383E0
5.389095957E0,5.225715041E-2,1.812917709E0,3.156529427E0,3.640477915E0
5.393837415E0,-1.661512554E-1,1.790324688E0,2.970674515E0,3.472430820E0
5.398578926E0,-4.785272777E-1,1.707560062E0,2.823751450E0,3.334414787E0
5.403320384E0,-8.732651472E-1,1.653272629E0,2.694093704E0,3.279335800E0
5.408061842E0,-1.255218267E0,1.670691967E0,2.540833950E0,3.289775328E0
5.412803301E0,-1.634674072E0,1.750514984E0,2.287178993E0,3.311744220E0
5.417544759E0,-1.966986895E0,1.809242249E0,2.026257038E0,3.353820589E0
5.422286217E0,-2.185892105E0,1.797207832E0,1.661989689E0,3.281812002E0
5.427027676E0,-2.325215578E0,1.743768215E0,1.304026604E0,3.185567525E0
5.431769134E0,-2.317888975E0,1.637726307E0,8.920359612E-1,2.974976456E0
5.436510592E0,-2.197110176E0,1.491652012E0,6.002140045E-1,2.722604580E0
5.441252103E0,-1.967474341E0,1.346559525E0,4.425201416E-1,2.424871525E0
5.445993561E0,-1.595628977E0,1.264696598E0,4.258871078E-1,2.080112772E0
5.450735020E0,-1.136828542E0,1.281550884E0,5.025448799E-1,1.785301980E0
5.455476478E0,-7.200652361E-1,1.353613377E0,6.559276581E-1,1.667634315E0
5.460217936E0,-3.185315132E-1,1.375057220E0,8.983564377E-1,1.673107580E0
5.464959395E0,8.487403393E-3,1.309506893E0,1.187159538E0,1.767548616E0
5.469700853E0,2.402108759E-1,1.156486511E0,1.436690331E0,1.859903605E0
5.474442311E0,3.392686844E-1,9.945554733E-1,1.590008259E0,1.905877775E0
5.479183770E0,3.663151562E-1,8.185133934E-1,1.740852356E0,1.958243574E0
5.483925228E0,3.340538144E-1,6.878423691E-1,1.858409405E0,2.009578212E0
5.488666738E0,2.741037607E-1,6.047177315E-1,1.890260220E0,2.003472012E0
5.493408197E0,1.557059586E-1,5.451626778E-1,1.841314316E0,1.926625314E0
5.498149655E0,4.591989517E-2,4.902138710E-1,1.723485470E0,1.792434222E0
5.502891113E0,-1.679465473E-1,4.951643944E-1,1.484022141E0,1.573440667E0
5.507632572E0,-4.122261703E-1,5.054554939E-1,1.213531971E0,1.377706615E0
5.512374030E0,-6.280423999E-1,5.335102081E-1,8.662314415E-1,1.195586596E0
5.517115488E0,-8.618887663E-1,5.178575516E-1,4.535832405E-1,1.103071369E0
5.521856947E0,-1.135984898E0,4.542832375E-1,9.002971649E-2,1.226760081E0
5.526598405E0,-1.388693333E0,4.079170227E-1,-2.344603539E-1,1.466232290E0
5.531339863E0,-1.611074805E0,3.597712517E-1,-5.224647522E-1,1.731463774E0
5.536081322E0,-1.825300336E0,2.835268974E-1,-7.357745171E-1,1.988334217E0
5.540822780E0,-2.000775337E0,1.932048798E-1,-8.598785400E-1,2.186280215E0
5.545564238E0,-2.168955326E0,6.227111816E-2,-9.114427567E-1,2.353502241E0
5.550305697E0,-2.265374184E0,-1.167945862E-1,-9.667654037E-1,2.465805449E0
5.555047207E0,-2.261568546E0,-2.845530510E-1,-1.013587475E0,2.494598625E0
5.559788613E0,-2.186417341E0,-4.439601898E-1,-1.013249874E0,2.450346251E0
5.564530124E0,-2.068750143E0,-6.003890038E-1,-9.845213890E-1,2.368433338E0
5.569271582E0,-1.898484945E0,-7.112045288E-1,-1.015575409E0,2.267476655E0
5.574013040E0,-1.777828932E0,-9.008870125E-1,-1.130138397E0,2.291175663E0
5.578754499E0,-1.627284527E0,-1.090334415E0,-1.320960999E0,2.362587994E0
5.583495957E0,-1.494266868E0,-1.281986713E0,-1.461152077E0,2.451792976E0
5.588237415E0,-1.357100010E0,-1.375709534E0,-1.507525921E0,2.450904233E0
5.592978874E0,-1.253913164E0,-1.393698692E0,-1.493295670E0,2.396794990E0
5.597720332E0,-1.194147110E0,-1.401153088E0,-1.475569725E0,2.359348069E0
5.602461790E0,-1.187152624E0,-1.386466026E0,-1.463704109E0,2.339668591E0
5.607203249E0,-1.094100356E0,-1.338030338E0,-1.476633072E0,2.273285289E0
5.611944707E0,-9.724240899E-1,-1.248878002E0,-1.547716618E0,2.213759608E0
5.616686165E0,-8.221740723E-1,-1.159941196E0,-1.619373798E0,2.154949021E0
5.621427624E0,-6.362879276E-1,-1.073767662E0,-1.722617149E0,2.127263303E0
5.626169082E0,-4.460598826E-1,-9.663414955E-1,-1.895769596E0,2.174103877E0
5.630910540E0,-3.232533336E-1,-8.563995361E-1,-2.194029808E0,2.377326162E0
5.635651999E0,-2.395089865E-1,-7.384052277E-1,-2.634507656E0,2.746495481E0
5.640393457E0,-1.209125519E-1,-6.188478470E-1,-3.090766430E0,3.154430159E0
5.645134915E0,-3.222388029E-2,-4.802942276E-1,-3.472381115E0,3.505588614E0
5.649876374E0,5.298852921E-5,-3.391747475E-1,-3.767711639E0,3.782947331E0
5.654617832E0,-9.884238243E-3,-2.118105888E-1,-3.998660564E0,4.004278678E0
5.659359290E0,-7.091075182E-3,-8.838081360E-2,-4.208494186E0,4.209428081E0
5.664100749E0,8.025297523E-2,4.329109192E-2,-4.332797050E0,4.333756447E0
5.668842207E0,1.448239982E-1,1.307144165E-1,-4.369324684E0,4.373677908E0
5.673583665E0,1.894805580E-1,1.596488953E-1,-4.334916115E0,4.341991291E0
5.678325176E0,1.906918585E-1,1.753091812E-1,-4.181625366E0,4.189640485E0
5.683066582E0,1.513689905E-1,1.796951294E-1,-3.906921387E0,3.913979769E0
5.687808040E0,2.877879143E-2,1.531839371E-1,-3.642135143E0,3.645468686E0
5.692549499E0,-6.176820397E-2,1.669650078E-1,-3.293623447E0,3.298431148E0
5.697290957E0,-9.576070309E-2,1.967182159E-1,-2.906683445E0,2.914905971E0
5.702032415E0,-1.423428059E-1,2.109985352E-1,-2.591150284E0,2.603620873E0
5.706773874E0,-1.970080435E-1,1.640515327E-1,-2.313279629E0,2.327442312E0
5.711515332E0,-3.537524343E-1,1.368980408E-1,-2.039377213E0,2.074353218E0
5.716256842E0,-4.647212923E-1,1.315331459E-1,-1.766856194E0,1.831678917E0
5.720998249E0,-5.086349249E-1,1.262116432E-1,-1.524309635E0,1.611880495E0
5.725739707E0,-5.193489194E-1,1.327705383E-1,-1.352294922E0,1.454665897E0
5.730481165E0,-6.121202707E-1,1.464352608E-1,-1.205327988E0,1.359761034E0
5.735222624E0,-7.421345115E-1,7.642889023E-2,-1.138453960E0,1.361132774E0
5.739964082E0,-7.615687251E-1,4.505062103E-2,-1.151729107E0,1.381483412E0
5.744705540E0,-7.447114587E-1,5.269765854E-2,-1.264443398E0,1.468396849E0
5.749446999E0,-6.937730312E-1,4.484891891E-2,-1.436114788E0,1.595543208E0
5.754188457E0,-6.466906071E-1,2.940893173E-2,-1.650342464E0,1.772767293E0
5.758929915E0,-6.078290939E-1,-9.832382202E-3,-1.790200233E0,1.890600370E0
5.763671374E0,-5.935270786E-1,3.495407104E-2,-1.865453720E0,1.957910560E0
5.768412832E0,-5.961874723E-1,6.077575684E-2,-1.828308105E0,1.924017600E0
5.773154290E0,-6.703112721E-1,2.451753616E-2,-1.762522697E0,1.885843199E0
5.777895749E0,-7.625737786E-1,3.626537323E-2,-1.632278919E0,1.801990126E0
5.782637207E0,-8.701778054E-1,8.851718903E-2,-1.468578339E0,1.709317713E0
5.787378665E0,-9.666557312E-1,1.213212013E-1,-1.328783989E0,1.647667753E0
5.792120124E0,-9.825958014E-1,1.752753258E-1,-1.236740112E0,1.589258335E0
5.796861582E0,-9.921050668E-1,1.905994415E-1,-1.113503456E0,1.503492786E0
5.801603040E0,-9.068143964E-1,1.889791489E-1,-1.050053596E0,1.400227847E0
5.806344499E0,-7.747846246E-1,2.135477066E-1,-9.650697708E-1,1.255887535E0
5.811085957E0,-6.536002159E-1,2.380633354E-1,-9.184193611E-1,1.152111764E0
5.815827415E0,-5.241155028E-1,2.293353081E-1,-9.030599594E-1,1.069022467E0
5.820568874E0,-3.985683918E-1,2.043328285E-1,-8.712482452E-1,9.796336931E-1
5.825310332E0,-2.701182663E-1,1.990103722E-1,-7.895736694E-1,8.579018507E-1
5.830051790E0,-1.532269120E-1,2.156825066E-1,-6.700248718E-1,7.203684884E-1
5.834793249E0,-1.008668840E-1,2.256979942E-1,-5.509476662E-1,6.038683994E-1
5.839534707E0,-1.305041164E-1,2.167506218E-1,-3.364725113E-1,4.209820748E-1
5.844276165E0,-8.293916285E-2,2.691335678E-1,1.078271866E-1,3.015600839E-1
5.849017624E0,-4.749226943E-2,3.668198586E-1,6.511545181E-1,7.488755109E-1
5.853759082E0,5.727159977E-2,4.819459915E-1,1.236944199E0,1.328752394E0
5.858500540E0,1.057232395E-1,5.227017403E-1,1.629008293E0,1.714077750E0
5.863241947E0,5.411563814E-2,5.249891281E-1,1.708085060E0,1.787763032E0
5.867983457E0,-1.219168305E-2,5.186219215E-1,1.423693657E0,1.515262671E0
5.872724915E0,-7.511801273E-2,5.552821159E-1,9.929723740E-1,1.140164497E0
5.877466322E0,-3.302490711E-2,7.465424538E-1,6.637353897E-1,9.994803386E-1
5.882207780E0,1.888840795E-1,1.034019470E0,3.487453461E-1,1.107473149E0
5.886949238E0,5.026889443E-1,1.344820499E0,1.786050797E-1,1.446768166E0
5.891690697E0,7.720288634E-1,1.541356564E0,1.763019562E-1,1.732885167E0
5.896432155E0,9.005181193E-1,1.600886345E0,2.572746277E-1,1.854712971E0
5.901173613E0,9.059354663E-1,1.517183304E0,4.089765549E-1,1.813787768E0
5.905915072E0,7.774618864E-1,1.410463333E0,7.649221420E-1,1.782963736E0
5.910656530E0,6.096080542E-1,1.404997349E0,1.365584373E0,2.051940596E0
5.915397988E0,3.606784046E-1,1.409173012E0,2.184778214E0,2.624712047E0
5.920139447E0,1.420383900E-1,1.458133698E0,3.033814430E0,3.369029353E0
5.924880905E0,-1.074334085E-1,1.371591091E0,3.831954002E0,4.071446369E0
5.929622363E0,-4.029017091E-1,1.153664112E0,4.591754913E0,4.751576986E0
5.934363822E0,-6.087589264E-1,9.397802353E-1,5.347400665E0,5.463375165E0
5.939105228E0,-6.851701736E-1,7.716469765E-1,6.082995415E0,6.169905221E0
5.943846738E0,-6.231340170E-1,6.431860924E-1,6.737165451E0,6.796424256E0
5.948588145E0,-3.678075075E-1,5.508980751E-1,7.193495750E0,7.223929136E0
5.953329603E0,-9.242720902E-3,4.677805901E-1,7.495676041E0,7.510263871E0
5.958071061E0,4.324652553E-1,4.124627113E-1,7.648983002E0,7.672293832E0
5.962812520E0,8.919977546E-1,3.368835449E-1,7.615468025E0,7.674926955E0
5.967553978E0,1.191366553E0,2.841196060E-1,7.438388824E0,7.538548038E0
5.972295436E0,1.401402354E0,2.637467384E-1,7.232669830E0,7.371906387E0
5.977036895E0,1.508824468E0,2.591705322E-1,6.940841675E0,7.107672178E0
5.981778353E0,1.549882054E0,2.347912788E-1,6.562833786E0,6.747447564E0
5.986519811E0,1.486285567E0,2.482614517E-1,6.146436691E0,6.328456568E0
5.991261270E0,1.451807976E0,2.903118134E-1,5.703454018E0,5.892488021E0
5.996002728E0,1.386289835E0,2.991046906E-1,5.197841644E0,5.387840094E0
6.000744134E0,1.279393792E0,2.873916626E-1,4.564660072E0,4.749269841E0
6.005485592E0,1.230703115E0,3.061656952E-1,3.880116463E0,4.082116039E0
6.010227051E0,1.220029473E0,3.275909424E-1,3.158055305E0,3.401338127E0
6.014968509E0,1.220394373E0,3.119320869E-1,2.397926331E0,2.708637063E0
6.019709967E0,1.240867376E0,2.864274979E-1,1.644621849E0,2.080041726E0
6.024451426E0,1.206941962E0,2.302384377E-1,9.311513901E-1,1.541674917E0
6.029192884E0,1.149591565E0,1.367034912E-1,3.575658798E-1,1.211652578E0
6.033934342E0,1.035326362E0,2.035427094E-2,-1.122846603E-1,1.041596283E0
6.038675801E0,9.167860746E-1,-1.212515831E-1,-4.378418922E-1,1.023183354E0
6.043417207E0,7.534197569E-1,-2.812728882E-1,-6.405725479E-1,1.028148315E0
6.048158665E0,6.317008138E-1,-4.243035316E-1,-8.374752998E-1,1.131567180E0
6.052900124E0,5.401259661E-1,-6.059823036E-1,-8.727235794E-1,1.191888022E0
6.057641582E0,4.721567035E-1,-8.081173897E-1,-8.176035881E-1,1.242763572E0
6.062383040E0,4.071898162E-1,-1.012418747E0,-8.151283264E-1,1.362068080E0
6.067124499E0,3.438406885E-1,-1.205350876E0,-8.097090721E-1,1.492221811E0
6.071865957E0,3.689579666E-1,-1.390305519E0,-8.198394775E-1,1.655661858E0
6.076607415E0,4.068664312E-1,-1.546636105E0,-8.329873085E-1,1.803189227E0
6.081348822E0,5.475721955E-1,-1.691521168E0,-9.469122887E-1,2.014378826E0
6.086090280E0,4.971953034E-1,-1.794151783E0,-1.180432320E0,2.204451009E0
6.090831738E0,5.166452527E-1,-1.878700972E0,-1.432801247E0,2.418544825E0
6.095573197E0,6.584738493E-1,-1.774834156E0,-1.878876686E0,2.667171103E0
6.100314655E0,8.960231543E-1,-1.581804276E0,-2.595796585E0,3.169088539E0
6.105056113E0,1.063656688E0,-1.534175396E0,-3.510529995E0,3.976038297E0
6.109797572E0,1.024006248E0,-1.572101355E0,-4.444978714E0,4.824720430E0
6.114538978E0,8.472216725E-1,-1.653205872E0,-5.165882111E0,5.489736988E0
6.119280436E0,7.225425839E-1,-1.635699034E0,-5.525758266E0,5.807889766E0
6.124021895E0,6.523195505E-1,-1.519707918E0,-5.620799065E0,5.859045577E0
6.128763353E0,5.676751137E-1,-1.355856895E0,-5.525373936E0,5.717548433E0
6.133504811E0,4.697812796E-1,-1.225965023E0,-5.385354996E0,5.543079750E0
6.138246270E0,3.963159919E-1,-1.147064686E0,-5.241274834E0,5.379942903E0
6.142987728E0,3.041924834E-1,-1.181795597E0,-5.035404205E0,5.181164870E0
6.147729134E0,2.349891067E-1,-1.208623886E0,-4.767405510E0,4.923834570E0
6.152470592E0,2.258223444E-1,-1.206755161E0,-4.393767834E0,4.562066366E0
6.157212051E0,2.636634409E-1,-1.212971210E0,-4.002435207E0,4.190501779E0
6.161953509E0,2.805686593E-1,-1.225849628E0,-3.566421986E0,3.781638780E0
6.166694967E0,2.445172369E-1,-1.251124859E0,-3.097061634E0,3.349163008E0
6.171436426E0,1.974957585E-1,-1.284964085E0,-2.639178753E0,2.942006418E0
6.176177884E0,1.262543052E-1,-1.261017084E0,-2.235396862E0,2.569650437E0
6.180919290E0,4.117640853E-2,-1.229891539E0,-1.918923855E0,2.279604671E0
6.185660749E0,-4.771682620E-2,-1.206191063E0,-1.651249409E0,2.045433545E0
6.190402207E0,-1.715341210E-1,-1.170938492E0,-1.427458286E0,1.854227080E0
6.195143665E0,-2.972813249E-1,-1.114727259E0,-1.271358490E0,1.716783463E0
6.199885124E0,-3.851324320E-1,-1.064099312E0,-1.134959698E0,1.602737611E0
6.204626582E0,-3.758954704E-1,-9.353494644E-1,-1.063706875E0,1.465485701E0
6.209367988E0,-3.179495633E-1,-8.145213127E-1,-1.048063278E0,1.364907883E0
6.214109447E0,-2.045186758E-1,-7.778806686E-1,-1.128772259E0,1.386020575E0
6.218850905E0,-5.048879981E-2,-7.437577248E-1,-1.236554146E0,1.443880476E0
6.223592363E0,1.221706271E-1,-7.476444244E-1,-1.326188564E0,1.527309384E0
6.228333822E0,3.154683709E-1,-7.795715332E-1,-1.464882851E0,1.689122208E0
6.233075280E0,5.889481306E-1,-7.410836220E-1,-1.576303482E0,1.838694510E0
6.237816686E0,9.712440968E-1,-5.887346268E-1,-1.756428719E0,2.091641795E0
6.242558145E0,1.271337271E0,-4.724512100E-1,-2.077404022E0,2.480950639E0
6.247299603E0,1.542456627E0,-3.768763542E-1,-2.374627590E0,2.856582648E0
6.252041061E0,1.691820145E0,-3.322081566E-1,-2.576900005E0,3.100488881E0
6.256782520E0,1.736366630E0,-2.779216766E-1,-2.687148571E0,3.211382408E0
6.261523926E0,1.611269712E0,-2.183866501E-1,-2.739247799E0,3.185492320E0
6.266265384E0,1.349937320E0,-2.013020515E-1,-2.671196461E0,2.999690620E0
6.271006842E0,1.074567556E0,-1.836953163E-1,-2.399371624E0,2.635417157E0
6.275748301E0,7.519951463E-1,-1.252799034E-1,-1.964428425E0,2.107171277E0
6.280489759E0,4.615437686E-1,-5.761718750E-2,-1.478656769E0,1.550086524E0
6.285231217E0,2.129249871E-1,6.174612045E-2,-1.011088371E0,1.035108365E0
6.289972624E0,-8.373856544E-4,1.608672142E-1,-7.217869759E-1,7.394967210E-1
6.294714082E0,-2.417861819E-1,1.657118797E-1,-4.431610107E-1,5.313310327E-1
6.299455540E0,-4.190855026E-1,1.240730286E-1,-1.990089417E-1,4.802409122E-1
6.304196999E0,-5.068620443E-1,2.128596306E-1,5.619144440E-2,5.526082091E-1
6.308938405E0,-5.322384238E-1,4.126691818E-1,2.483329773E-1,7.178041941E-1
6.313679863E0,-4.888677001E-1,5.895333290E-1,3.152379990E-1,8.282005616E-1
6.318421322E0,-4.822969437E-1,7.675857544E-1,4.075775146E-1,9.939404724E-1
6.323162780E0,-4.883044362E-1,9.325613976E-1,6.018152237E-1,1.212556616E0
6.327904238E0,-6.217666864E-1,1.079612732E0,8.691835403E-1,1.519091008E0
6.332645645E0,-9.338350296E-1,1.149096966E0,1.192712784E0,1.901324666E0
6.337387103E0,-1.301885843E0,1.207970619E0,1.710916519E0,2.466036314E0
6.342128561E0,-1.572971225E0,1.310641766E0,2.335214615E0,3.105679895E0
6.346870020E0,-1.667890787E0,1.499334335E0,3.032265663E0,3.771537906E0
6.351611478E0,-1.565387964E0,1.722817898E0,3.816843987E0,4.470664269E0
6.356352884E0,-1.376561880E0,2.037617207E0,4.612924576E0,5.227416153E0
6.361094342E0,-1.156858206E0,2.368755341E0,5.277617455E0,5.899370201E0
6.365835801E0,-1.047974348E0,2.574820042E0,5.734886169E0,6.373136422E0
6.370577259E0,-1.074297905E0,2.586441994E0,6.056942940E0,6.673106919E0
6.375318717E0,-1.224295139E0,2.444469929E0,6.232130051E0,6.805422602E0
6.380060124E0,-1.514949322E0,2.166043758E0,6.255826950E0,6.791331816E0
6.384801582E0,-1.898921490E0,1.749389648E0,6.104137421E0,6.627726655E0
6.389543040E0,-2.399163961E0,1.355639458E0,5.772100449E0,6.396162103E0
6.394284499E0,-2.943767548E0,9.902524948E-1,5.453211784E0,6.275658224E0
6.399025905E0,-3.358793020E0,6.752567291E-1,5.249926567E0,6.268906696E0
6.403767363E0,-3.684143066E0,4.252657890E-1,5.073363304E0,6.284327835E0
6.408508822E0,-3.890691757E0,2.188196182E-1,4.975912094E0,6.320210878E0
6.413250280E0,-3.932175636E0,5.063533783E-2,5.043705940E0,6.395587446E0
6.417991686E0,-3.785819530E0,-2.738380432E-2,5.279213905E0,6.496405071E0
6.422733145E0,-3.521963358E0,-4.006242752E-2,5.493699074E0,6.525837908E0
6.427474603E0,-3.133639812E0,-8.376598358E-2,5.572737694E0,6.393912778E0
6.432216061E0,-2.730172157E0,-1.446413994E-1,5.643545151E0,6.270914049E0
6.436957467E0,-2.276975393E0,-2.421336174E-1,5.639414787E0,6.086562640E0
6.441698926E0,-1.847183108E0,-3.094878197E-1,5.531929016E0,5.840385842E0
6.446440384E0,-1.485384107E0,-2.773981094E-1,5.306917191E0,5.517851550E0
6.451181842E0,-1.217454672E0,-2.294435501E-1,4.933344841E0,5.086524505E0
6.455923301E0,-1.138532400E0,-2.103753090E-1,4.449323654E0,4.597498752E0
6.460664707E0,-1.142793536E0,-1.522784233E-1,3.904758453E0,4.071400786E0
6.465406165E0,-1.189828277E0,-1.617708206E-1,3.308744431E0,3.519893583E0
6.470147624E0,-1.192045569E0,-1.732459068E-1,2.687097549E0,2.944737683E0
6.474889030E0,-1.148142934E0,-1.763014793E-1,2.115870476E0,2.413756881E0
6.479630488E0,-1.070683360E0,-1.583137512E-1,1.630469322E0,1.957001868E0
6.484371947E0,-1.045621753E0,-1.475067139E-1,1.218569756E0,1.612450101E0
6.489113405E0,-1.130182981E0,-1.747770309E-1,9.110631943E-1,1.462154823E0
6.493854863E0,-1.197795630E0,-1.994228363E-1,6.408405304E-1,1.373011443E0
6.498596270E0,-1.298737764E0,-2.743191719E-1,4.677658081E-1,1.407400313E0
6.503337728E0,-1.440453649E0,-3.783583641E-1,3.680400848E-1,1.534117098E0
6.508079186E0,-1.561175704E0,-5.001773834E-1,3.036184311E-1,1.667222584E0
6.512820592E0,-1.642089844E0,-6.116876602E-1,2.412939072E-1,1.768853753E0
6.517562051E0,-1.712052822E0,-7.303202152E-1,1.957664490E-1,1.871581413E0
6.522303509E0,-1.716040611E0,-8.378143311E-1,1.722650528E-1,1.917394973E0
6.527044967E0,-1.630001068E0,-9.180836678E-1,1.185121536E-1,1.874520268E0
6.531786374E0,-1.520594358E0,-1.005342722E0,2.777385712E-2,1.823099717E0
6.536527832E0,-1.375502706E0,-1.071463823E0,-9.000110626E-2,1.745893071E0
6.541269290E0,-1.228036046E0,-1.138415337E0,-3.014793396E-1,1.701455789E0
6.546010749E0,-1.042271495E0,-1.196748495E0,-6.184177399E-1,1.703225567E0
6.550752155E0,-8.300127983E-1,-1.253475189E0,-1.014441967E0,1.813618979E0
6.555493613E0,-6.147122979E-1,-1.315140247E0,-1.547120571E0,2.121567143E0
6.560235072E0,-4.174956083E-1,-1.421219587E0,-2.147526741E0,2.608838593E0
6.564976478E0,-2.667326331E-1,-1.532137632E0,-2.809059620E0,3.210826680E0
6.569717936E0,-1.340465546E-1,-1.591815472E0,-3.400745869E0,3.757248653E0
6.574459395E0,-2.532809973E-2,-1.592365742E0,-3.882545948E0,4.196478667E0
6.579200853E0,6.789869070E-2,-1.554842710E0,-4.288471222E0,4.562141110E0
6.583942259E0,7.083606720E-2,-1.543245792E0,-4.635766506E0,4.886405266E0
6.588683717E0,5.024594069E-2,-1.502028227E0,-4.939190865E0,5.162772496E0
6.593425176E0,4.919379950E-2,-1.478638649E0,-5.124925613E0,5.334196737E0
6.598166634E0,7.003045082E-2,-1.451445341E0,-5.229053974E0,5.427209532E0
6.602908040E0,1.031036973E-1,-1.463431358E0,-5.275634766E0,5.475818103E0
6.607649499E0,1.485502124E-1,-1.433440447E0,-5.240709305E0,5.435241733E0
6.612390957E0,2.136113346E-1,-1.383250237E0,-5.109901428E0,5.298122651E0
6.617132363E0,2.581190169E-1,-1.358466625E0,-4.971663475E0,5.160377380E0
6.621873822E0,2.350557745E-1,-1.311652899E0,-4.715704918E0,4.900362988E0
6.626615280E0,2.310642600E-1,-1.272023201E0,-4.370537281E0,4.557743942E0
6.631356686E0,1.722023189E-1,-1.209224224E0,-3.957348347E0,4.141555601E0
6.636098145E0,1.556736231E-2,-1.150346994E0,-3.540343285E0,3.722575872E0
6.640839603E0,-1.668304205E-1,-1.105815411E0,-3.087947845E0,3.284217107E0
6.645581009E0,-2.192878723E-1,-1.050220013E0,-2.645121574E0,2.854420675E0
6.650322467E0,-1.845656633E-1,-9.653377533E-1,-2.182652950E0,2.393724162E0
6.655063926E0,-1.269308329E-1,-8.496131897E-1,-1.755117416E0,1.954070407E0
6.659805384E0,-1.440914273E-1,-7.897353172E-1,-1.498448372E0,1.699938744E0
6.664546790E0,-1.594768763E-1,-7.546353340E-1,-1.328719139E0,1.536359955E0
6.669288249E0,-1.853045225E-1,-7.274725437E-1,-1.303275108E0,1.504021302E0
6.674029707E0,-1.862891316E-1,-6.888282299E-1,-1.367136955E0,1.542158042E0
6.678771113E0,-1.705923676E-1,-6.382651329E-1,-1.565931320E0,1.699595551E0
6.683512572E0,-1.318152547E-1,-6.159853935E-1,-1.756321907E0,1.865872425E0
6.688254030E0,-1.469538808E-1,-5.761084557E-1,-1.926616669E0,2.016270861E0
6.692995436E0,-1.203582287E-1,-5.659832954E-1,-2.117755413E0,2.195384063E0
6.697736895E0,-9.750097990E-2,-5.512886047E-1,-2.349277020E0,2.415062749E0
6.702478353E0,-1.211214662E-1,-5.459170341E-1,-2.520932674E0,2.582207847E0
6.707219759E0,-1.527543664E-1,-5.115051270E-1,-2.568277359E0,2.623169835E0
6.711961217E0,-2.160753608E-1,-4.433326721E-1,-2.515350819E0,2.563244460E0
6.716702676E0,-2.750185728E-1,-3.917102814E-1,-2.445922375E0,2.492309857E0
6.721444082E0,-3.891337514E-1,-3.493766785E-1,-2.388731003E0,2.445306718E0
6.726185540E0,-5.320490003E-1,-3.380069733E-1,-2.293456078E0,2.378500711E0
6.730926999E0,-7.038028240E-1,-2.619853020E-1,-2.138592720E0,2.266617201E0
6.735668405E0,-8.471612930E-1,-1.693830490E-1,-1.991085529E0,2.170436467E0
6.740409863E0,-9.956029058E-1,-7.249403000E-2,-1.721628666E0,1.990096931E0
6.745151322E0,-1.058150172E0,3.063058853E-2,-1.464028358E0,1.806654105E0
6.749892728E0,-1.087464452E0,9.404897690E-2,-1.146252632E0,1.582820028E0
6.754634186E0,-1.111930847E0,1.269755363E-1,-8.159565926E-1,1.385026410E0
6.759375645E0,-1.069060087E0,2.032032013E-1,-5.207481384E-1,1.206382872E0
6.764117051E0,-9.226688743E-1,2.747502327E-1,-2.820148468E-1,1.003163953E0
6.768858509E0,-7.758278847E-1,3.367629051E-1,-7.573032379E-2,8.491485399E-1
6.773599967E0,-6.506882310E-1,3.676805496E-1,1.077241898E-1,7.551083774E-1
6.778341374E0,-4.856866300E-1,4.655323029E-1,2.349090576E-1,7.125967253E-1
6.783082832E0,-3.051181138E-1,5.419468880E-1,3.057975769E-1,6.930480869E-1
6.787824238E0,-2.745014429E-2,6.354198456E-1,3.323307037E-1,7.176040602E-1
6.792565697E0,2.402940542E-1,6.773171425E-1,2.113914490E-1,7.491235470E-1
6.797307155E0,4.317991734E-1,7.378764153E-1,-1.901626587E-2,8.551454547E-1
6.802048613E0,5.143790245E-1,8.036909103E-1,-2.086343765E-1,9.767462123E-1
6.806790020E0,4.407499433E-1,8.729567528E-1,-2.622108459E-1,1.012456682E0
6.811531478E0,3.547880352E-1,9.720478058E-1,-1.201858521E-1,1.041727472E0
6.816272884E0,2.899704278E-1,1.143750191E0,2.268714905E-1,1.201548177E0
6.821014342E0,1.387410313E-1,1.241969109E0,5.181550980E-1,1.352856624E0
6.825755801E0,-2.828407288E-1,1.211712360E0,7.513895035E-1,1.453558361E0
6.830497207E0,-8.212513924E-1,1.194215775E0,1.012729645E0,1.768113825E0
6.835238665E0,-1.208457232E0,1.229998112E0,1.338076591E0,2.182593228E0
6.839980124E0,-1.425683498E0,1.344845772E0,1.765873909E0,2.638085338E0
6.844721530E0,-1.485342741E0,1.499984741E0,2.214943886E0,3.059766935E0
6.849462988E0,-1.455010414E0,1.687930584E0,2.503684044E0,3.351805298E0
6.854204447E0,-1.390061140E0,1.817728043E0,2.799698830E0,3.615898055E0
6.858945853E0,-1.362392426E0,1.782054424E0,3.052648544E0,3.788204618E0
6.863687311E0,-1.312671423E0,1.662661076E0,3.159590721E0,3.804019143E0
6.868428717E0,-1.162716389E0,1.527138233E0,3.168160439E0,3.704227470E0
6.873170176E0,-1.032811761E0,1.352186680E0,3.188055038E0,3.613696705E0
6.877911634E0,-1.086230278E0,1.150205612E0,3.223733902E0,3.591006744E0
6.882653040E0,-1.232954979E0,9.719185829E-1,3.322611809E0,3.674854139E0
6.887394499E0,-1.397409797E0,7.765293121E-1,3.515670776E0,3.862084013E0
6.892135905E0,-1.647521019E0,5.541129112E-1,3.795778275E0,4.174841235E0
6.896877363E0,-1.852563620E0,3.731250763E-1,4.215944290E0,4.620108283E0
6.901618822E0,-1.941444635E0,2.444944382E-1,4.668983459E0,5.062449145E0
6.906360228E0,-1.832973242E0,1.933026314E-1,5.122144699E0,5.443668169E0
6.911101686E0,-1.471336365E0,2.472891808E-1,5.521085739E0,5.719123217E0
6.915843145E0,-9.101952314E-1,3.049902916E-1,5.861829758E0,5.939909304E0
6.920584551E0,-2.887610495E-1,2.749161720E-1,6.063730240E0,6.076823699E0
6.925326009E0,3.210090399E-1,1.854186058E-1,6.117865562E0,6.129086874E0
6.930067415E0,8.878270984E-1,8.681297302E-2,5.957609177E0,6.024025278E0
6.934808874E0,1.451678634E0,4.172515869E-2,5.650010109E0,5.833671749E0
6.939550332E0,1.839142561E0,6.503629684E-2,5.307326317E0,5.617329233E0
6.944291738E0,2.060449600E0,1.093997955E-1,4.953200340E0,5.365781815E0
6.949033197E0,2.163038969E0,1.917953491E-1,4.671178818E0,5.151255632E0
6.953774603E0,2.200962305E0,2.525501251E-1,4.427603722E0,4.950928332E0
6.958516061E0,2.175889492E0,3.205213547E-1,4.121945381E0,4.672008427E0
6.963257520E0,2.190029383E0,3.532953262E-1,3.651058197E0,4.272150775E0
6.967998926E0,2.185499668E0,2.801127434E-1,3.026483536E0,3.743591129E0
6.972740384E0,2.231091499E0,2.025876045E-1,2.338521957E0,3.238440359E0
6.977481790E0,2.326427460E0,1.382889748E-1,1.754020214E0,2.916843410E0
6.982223249E0,2.447090864E0,8.517980576E-2,1.322746277E0,2.783014015E0
6.986964707E0,2.532800198E0,4.343080521E-2,9.773712158E-1,2.715182787E0
6.991706113E0,2.597534180E0,-2.261638641E-2,6.195187569E-1,2.670486623E0
6.996447572E0,2.669662237E0,-1.126837730E-1,2.130875587E-1,2.680522412E0
7.001188978E0,2.801693439E0,-1.834497452E-1,-1.632084846E-1,2.812432568E0
7.005930436E0,2.840354443E0,-2.441892624E-1,-5.886287689E-1,2.910966435E0
7.010671895E0,2.837958336E0,-3.232216835E-1,-1.025253773E0,3.034736409E0
7.015413301E0,2.707973719E0,-4.297142029E-1,-1.509346008E0,3.129840464E0
7.020154759E0,2.574687958E0,-5.776214600E-1,-1.993407726E0,3.307013607E0
7.024896165E0,2.478710413E0,-7.164287567E-1,-2.370121956E0,3.503534438E0
7.029637624E0,2.389122725E0,-8.291368484E-1,-2.697287560E0,3.697395771E0
7.034379030E0,2.327632666E0,-9.275493622E-1,-2.987116814E0,3.898857333E0
7.039120488E0,2.232278109E0,-1.016283035E0,-3.225490093E0,4.052120816E0
7.043861947E0,2.110427618E0,-1.162356853E0,-3.340710163E0,4.118898224E0
7.048603353E0,1.904601097E0,-1.263148785E0,-3.414041519E0,4.108373119E0
7.053344811E0,1.607800484E0,-1.426591396E0,-3.409438133E0,4.030440893E0
7.058086217E0,1.285023451E0,-1.602996349E0,-3.261899948E0,3.854980394E0
7.062827676E0,9.200332761E-1,-1.774028301E0,-2.958912849E0,3.570546582E0
7.067569082E0,6.566281319E-1,-1.921653748E0,-2.583412647E0,3.286021080E0
7.072310540E0,4.876544476E-1,-2.039885998E0,-2.187108517E0,3.030245107E0
7.077051999E0,3.149052858E-1,-2.160744190E0,-1.855368614E0,2.865374930E0
7.081793405E0,1.670424938E-1,-2.284900188E0,-1.621036053E0,2.806497809E0
7.086534863E0,6.532335281E-2,-2.396026611E0,-1.538674831E0,2.848285607E0
7.091276270E0,3.573983908E-2,-2.501630783E0,-1.562441349E0,2.949687590E0
7.096017728E0,1.259622574E-1,-2.565997601E0,-1.620367527E0,3.037400385E0
7.100759134E0,2.972685695E-1,-2.555751801E0,-1.774586201E0,3.125602670E0
7.105500592E0,4.968461990E-1,-2.568819523E0,-1.982120514E0,3.282452074E0
7.110241999E0,6.982961893E-1,-2.533035755E0,-2.264763355E0,3.468867360E0
7.114983457E0,9.806113243E-1,-2.491073370E0,-2.570152283E0,3.711162602E0
7.119724863E0,1.288914680E0,-2.428301334E0,-2.798041821E0,3.922624944E0
7.124466322E0,1.637736082E0,-2.351730108E0,-2.967777729E0,4.125593124E0
7.129207780E0,1.888809204E0,-2.315905571E0,-3.263857365E0,4.425356903E0
7.133949186E0,2.028671741E0,-2.370501280E0,-3.473590374E0,4.669112918E0
7.138690645E0,2.139468908E0,-2.397776365E0,-3.673852921E0,4.880968550E0
7.143432051E0,2.252713203E0,-2.318616867E0,-3.752388954E0,4.952890451E0
7.148173509E0,2.303795576E0,-2.254940510E0,-3.788366318E0,4.974329112E0
7.152914915E0,2.282851219E0,-2.230663776E0,-3.779457092E0,4.946874416E0
7.157656374E0,2.134711742E0,-2.260259867E0,-3.637117624E0,4.784808617E0
7.162397780E0,1.949936628E0,-2.224328756E0,-3.490503788E0,4.575315067E0
7.167139238E0,1.708833456E0,-2.144653559E0,-3.306086063E0,4.295329525E0
7.171880645E0,1.446352482E0,-2.029120922E0,-3.040504932E0,3.931149636E0
7.176622103E0,1.173431635E0,-1.883075714E0,-2.753418446E0,3.536131938E0
7.181363561E0,1.059186459E0,-1.762063980E0,-2.463715553E0,3.208837757E0
7.186104967E0,1.019423962E0,-1.625738621E0,-2.240561962E0,2.949977827E0
7.190846426E0,1.118517637E0,-1.498270035E0,-2.019169331E0,2.751897452E0
7.195587832E0,1.279602289E0,-1.348608494E0,-1.859342575E0,2.629312020E0
7.200329290E0,1.487763166E0,-1.186268330E0,-1.823365688E0,2.635400202E0
7.205070697E0,1.687788963E0,-1.027691841E0,-1.822927475E0,2.688465489E0
7.209812155E0,1.877548456E0,-8.866658211E-1,-1.956439972E0,2.852897097E0
7.214553561E0,2.129333258E0,-7.313027382E-1,-2.099931717E0,3.078729776E0
7.219295020E0,2.364844084E0,-6.063055992E-1,-2.241906643E0,3.314549655E0
7.224036426E0,2.467464924E0,-4.704999924E-1,-2.330051422E0,3.426206798E0
7.228777884E0,2.476292610E0,-3.977317810E-1,-2.266491413E0,3.380414026E0
7.233519290E0,2.377760172E0,-2.828493118E-1,-2.020076752E0,3.132803417E0
7.238260749E0,2.280261517E0,-1.692657471E-1,-1.583449841E0,2.781286910E0
7.243002155E0,2.112622261E0,-7.182455063E-2,-1.092602253E0,2.379519125E0
7.247743613E0,1.906280637E0,-2.453231812E-2,-5.638251305E-1,1.988066015E0
7.252485020E0,1.646970272E0,-3.267717361E-2,-5.168008804E-2,1.648104883E0
7.257226478E0,1.324931145E0,-1.064872742E-2,4.131546021E-1,1.387895046E0
7.261967884E0,1.011551857E0,3.144550323E-2,8.860511780E-1,1.345106936E0
7.266709342E0,7.780240774E-1,6.923675537E-2,1.314623833E0,1.529166771E0
7.271450749E0,4.586144686E-1,7.126188278E-2,1.751691818E0,1.812134022E0
7.276192207E0,-2.679407597E-2,5.878925323E-2,2.096735954E0,2.097731098E0
7.280933613E0,-4.117701054E-1,7.483530045E-2,2.294508457E0,2.332364466E0
7.285675072E0,-5.732319355E-1,2.365455627E-1,2.387921810E0,2.467127728E0
7.290416478E0,-5.668516159E-1,3.741517067E-1,2.448577881E0,2.541032053E0
7.295157936E0,-4.619673491E-1,4.688100815E-1,2.426145077E0,2.513837039E0
7.299899342E0,-4.090106487E-1,6.236686707E-1,2.380365372E0,2.494472214E0
7.304640801E0,-2.306263447E-1,8.269128799E-1,2.445088863E0,2.591415245E0
7.309382207E0,-6.993806362E-2,9.383764267E-1,1.923713684E0,2.141521886E0
7.314123665E0,2.792367935E-1,9.782629013E-1,1.540823460E0,1.846377108E0
7.318865072E0,5.088644028E-1,1.011983871E0,1.185793400E0,1.639865947E0
7.323606530E0,5.502991676E-1,1.133147717E0,9.971160889E-1,1.606578170E0
7.328347936E0,4.760320187E-1,1.365707397E0,9.195861816E-1,1.713885038E0
7.333089395E0,3.299286366E-1,1.614040375E0,8.933162689E-1,1.874031268E0
7.337830801E0,1.582572460E-1,1.847109795E0,9.016222954E-1,2.061500112E0
7.342572259E0,-5.957567692E-2,2.021731853E0,1.076320648E0,2.291160205E0
7.347313665E0,-2.419141531E-1,2.273796082E0,1.338757515E0,2.649706165E0
7.352055124E0,-2.140012980E-1,2.633842468E0,1.658168793E0,3.119686915E0
7.356796530E0,-1.928045750E-1,3.019837379E0,2.056725502E0,3.658785481E0
7.361537988E0,-3.071110249E-1,3.367047310E0,2.297804832E0,4.087937355E0
7.366279395E0,-3.913753033E-1,3.580061436E0,2.383932590E0,4.318929162E0
7.371020853E0,-4.477108717E-1,3.628333092E0,2.398766518E0,4.372565249E0
7.375762259E0,-6.053035259E-1,3.450294495E0,2.361186981E0,4.224467827E0
7.380503717E0,-9.914724827E-1,3.209256172E0,2.287466049E0,4.063845936E0
7.385245124E0,-1.647962809E0,2.870019436E0,2.121818066E0,3.931272680E0
7.389986530E0,-2.440411568E0,2.507342339E0,1.887259483E0,3.975439923E0
7.394727988E0,-3.224877834E0,2.281759262E0,1.850882530E0,4.362571319E0
7.399469395E0,-3.809354782E0,2.106887341E0,2.028845787E0,4.802746438E0
7.404210853E0,-4.212402344E0,1.961102486E0,2.135959148E0,5.113959127E0
7.408952259E0,-4.550323009E0,1.772469997E0,2.172117710E0,5.344640748E0
7.413693717E0,-4.775395393E0,1.590961456E0,2.264414787E0,5.519341795E0
7.418435124E0,-4.788540840E0,1.406486988E0,2.528345585E0,5.594717189E0
7.423176582E0,-4.554491520E0,1.232711315E0,2.948119164E0,5.563665769E0
7.427917988E0,-4.219820023E0,1.106970787E0,3.343119621E0,5.496245459E0
7.432659447E0,-3.909440041E0,9.376325607E-1,3.623604774E0,5.412336631E0
7.437400853E0,-3.611404419E0,8.097729683E-1,4.049393177E0,5.485941965E0
7.442142311E0,-3.313925266E0,6.528387070E-1,4.554799557E0,5.670493634E0
7.446883717E0,-2.970210314E0,5.160260201E-1,4.992605209E0,5.832198465E0
7.451625124E0,-2.615684748E0,3.987035751E-1,5.105220795E0,5.750134833E0
7.456366582E0,-2.273996830E0,2.817683220E-1,4.859581470E0,5.372707608E0
7.461107988E0,-1.997595906E0,7.735824585E-2,4.356112957E0,4.792921217E0
7.465849447E0,-1.829539418E0,-1.155905724E-1,3.709287643E0,4.137558517E0
7.470590853E0,-1.767801285E0,-2.649688721E-1,2.994898796E0,3.487799978E0
7.475332311E0,-1.772261262E0,-3.626031876E-1,2.233603954E0,2.874261240E0
7.480073717E0,-1.843777776E0,-4.528694153E-1,1.496115208E0,2.417223181E0
7.484815124E0,-1.876027465E0,-4.895148277E-1,8.005561829E-1,2.097616270E0
7.489556582E0,-1.841850758E0,-5.437273979E-1,2.536091805E-1,1.937103847E0
7.494297988E0,-1.723676920E0,-5.503706932E-1,-2.031502724E-1,1.820780068E0
7.499039447E0,-1.568326950E0,-5.783019066E-1,-6.352272034E-1,1.788182350E0
7.503780853E0,-1.475060701E0,-5.981984138E-1,-1.148744106E0,1.962971838E0
7.508522311E0,-1.379791975E0,-7.002639771E-1,-1.631989002E0,2.248907209E0
7.513263717E0,-1.318650723E0,-8.622589111E-1,-2.095210075E0,2.621494882E0
7.518005124E0,-1.217881918E0,-1.027275562E0,-2.263148785E0,2.767738042E0
7.522746582E0,-1.568693638E0,-1.372815609E0,-4.985122681E-1,2.143347127E0
7.527487988E0,-2.210847855E0,-1.507804394E0,5.071678162E-1,2.723699969E0
7.532229447E0,-1.404235840E0,-1.121259689E0,-1.169525146E0,2.144036066E0
7.536970853E0,-8.140182495E-2,-8.813328743E-1,-2.174006939E0,2.347270769E0
7.541712311E0,6.138968468E-2,-1.287760735E0,-2.573987961E0,2.878803645E0
7.546453717E0,-6.723082066E-1,-1.891493320E0,-2.895664215E0,3.523438172E0
7.551195176E0,-1.522258520E0,-2.180090666E0,-2.525815964E0,3.667398614E0
7.555936582E0,-2.439937830E0,-2.087695122E0,-1.120690346E0,3.401134279E0
7.560677988E0,-3.353447199E0,-1.743854046E0,2.091884613E-1,3.785550800E0
7.565419447E0,-3.185523748E0,-1.153619289E0,9.008502960E-2,3.389176055E0
7.570160853E0,-2.707544088E0,-9.392943382E-1,-2.103796005E-1,2.873556754E0
7.574902311E0,-3.120450497E0,-1.272081852E0,1.750097275E-1,3.374319479E0
7.579643717E0,-2.895217896E0,-1.439692020E0,3.422975540E-1,3.251486951E0
7.584385124E0,-2.162627697E0,-1.360299587E0,-1.675224304E-2,2.554927428E0
7.589126582E0,-1.757594347E0,-1.351312160E0,-3.855743408E-1,2.250299984E0
7.593867988E0,-1.446896553E0,-1.294483662E0,-9.637842178E-1,2.167504926E0
7.598609447E0,-7.711927891E-1,-1.138214588E0,-1.697920322E0,2.184766392E0
7.603350853E0,1.829919815E-1,-1.083916664E0,-2.520762444E0,2.750019036E0
7.608092259E0,7.935621738E-1,-1.248903751E0,-3.496934414E0,3.797110981E0
7.612833717E0,1.157051444E0,-1.513795376E0,-4.458811760E0,4.848850049E0
7.617575124E0,1.478334904E0,-1.747815609E0,-5.221657276E0,5.701406686E0
7.622316582E0,1.127352834E0,-2.266255856E0,-5.528344154E0,6.080249099E0
7.627057988E0,7.643209696E-1,-2.758008718E0,-5.441814423E0,6.148507367E0
7.631799395E0,4.037595749E0,-4.441199303E-1,-4.540674210E0,6.092384116E0
7.636540853E0,3.026223898E0,-1.046471119E0,-3.666378498E0,4.867798699E0
7.641282259E0,2.041894913E0,-2.266111851E0,-4.064528465E0,5.081829336E0
7.646023717E0,1.608669400E0,-2.701163292E0,-4.296225548E0,5.323688038E0
7.650765124E0,1.403526187E0,-2.250864506E0,-3.954089880E0,4.761418230E0
7.655506530E0,1.283947110E0,-1.632741451E0,-3.285826921E0,3.887289980E0
7.660247988E0,9.521840811E-1,-1.450964451E0,-2.639348984E0,3.158815509E0
7.664989395E0,7.825045586E-1,-1.438010216E0,-2.271862984E0,2.800276447E0
7.669730853E0,7.802337408E-1,-1.436154366E0,-1.991256714E0,2.576122542E0
7.674472259E0,7.850856781E-1,-1.397844315E0,-1.660879135E0,2.308429715E0
7.679213665E0,7.035520077E-1,-1.301729679E0,-1.433825970E0,2.060422893E0
7.683955124E0,4.871596098E-1,-1.142845154E0,-1.346312523E0,1.831932570E0
7.688696530E0,2.047195435E-1,-9.185137749E-1,-1.336533070E0,1.634594229E0
7.693437988E0,-7.522869110E-2,-6.572389603E-1,-1.280572414E0,1.441349408E0
7.698179395E0,-4.035599232E-1,-4.066839218E-1,-1.276907921E0,1.399552165E0
7.702920801E0,-6.395719051E-1,-1.785421371E-1,-1.397550583E0,1.547280565E0
7.707662259E0,-7.689578533E-1,-8.512496948E-3,-1.477446556E0,1.665598081E0
7.712403665E0,-8.442480564E-1,1.896510124E-1,-1.519040108E0,1.748200542E0
7.717145072E0,-9.109342098E-1,2.917728424E-1,-1.632525921E0,1.892108192E0
7.721886530E0,-1.045494318E0,3.865027428E-1,-1.691113472E0,2.025415393E0
7.726627936E0,-1.113730431E0,3.973426819E-1,-1.692414761E0,2.064593035E0
7.731369342E0,-1.050747156E0,3.840637207E-1,-1.600404739E0,1.952657127E0
7.736110801E0,-9.972875118E-1,3.320174217E-1,-1.362166405E0,1.720556673E0
7.740852207E0,-9.049310684E-1,3.007240295E-1,-1.123305321E0,1.473482278E0
7.745593665E0,-7.996573448E-1,3.044171333E-1,-9.266777039E-1,1.261290302E0
7.750335072E0,-7.268085480E-1,3.381648064E-1,-7.290720940E-1,1.083583047E0
7.755076478E0,-6.887223721E-1,3.612303734E-1,-5.447931290E-1,9.495395946E-1
7.759817936E0,-7.118959427E-1,4.070014954E-1,-3.714275360E-1,9.002246747E-1
7.764559342E0,-7.081007957E-1,4.587049484E-1,-2.305722237E-1,8.746316464E-1
7.769300749E0,-7.016494274E-1,4.661555290E-1,-1.438469887E-1,8.545787573E-1
7.774042207E0,-6.976673603E-1,5.632715225E-1,-5.147171021E-2,8.981446936E-1
7.778783613E0,-7.347190380E-1,6.949124336E-1,4.408979416E-2,1.012254546E0
7.783525072E0,-7.387375832E-1,8.322887421E-1,1.548099518E-1,1.123567483E0
7.788266478E0,-7.384841442E-1,1.011172771E0,2.664008141E-1,1.280155693E0
7.793007884E0,-7.245280743E-1,1.150352001E0,3.261146545E-1,1.398070608E0
7.797749342E0,-7.470617294E-1,1.249830723E0,4.321160316E-1,1.518849014E0
7.802490749E0,-7.867488861E-1,1.280866623E0,6.012315750E-1,1.618972675E0
