"Time (s)","Linear Acceleration x (m/s^2)","Linear Acceleration y (m/s^2)","Linear Acceleration z (m/s^2)","Absolute acceleration (m/s^2)"
5.018589000E-2,0.000000000E0,0.000000000E0,0.000000000E0,0.000000000E0
5.492771300E-2,-5.449056625E-2,-9.737014771E-4,4.158020020E-3,5.465765304E-2
5.966953600E-2,-4.953420162E-2,-2.068042755E-3,2.603769302E-2,5.599888739E-2
6.441141100E-2,-2.091443539E-2,-1.053857803E-2,4.597234726E-2,5.159391386E-2
6.915323400E-2,3.010475636E-2,8.528709412E-3,8.832883835E-2,9.370709111E-2
7.389505600E-2,8.865070343E-2,8.633613586E-3,7.373905182E-2,1.156327560E-1
7.863693100E-2,1.193462610E-1,4.820823669E-3,-3.501415253E-2,1.244699210E-1
8.337875400E-2,1.279624701E-1,-3.509521484E-4,-1.602983475E-1,2.051099147E-1
8.812057700E-2,1.268357038E-1,1.032161713E-2,-2.766389847E-1,3.045044489E-1
9.286240000E-2,1.011165380E-1,1.412725449E-2,-3.400254250E-1,3.550231305E-1
9.760427500E-2,4.327619076E-2,2.477931976E-2,-3.711223602E-1,3.744578076E-1
1.023460980E-1,-5.629992485E-2,8.139038086E-2,-3.659849167E-1,3.791293116E-1
1.070879210E-1,-1.054491997E-1,1.215381622E-1,-3.688654900E-1,4.024336073E-1
1.118297440E-1,-1.463859081E-1,1.513323784E-1,-4.212107658E-1,4.709021471E-1
1.165716190E-1,-1.711953878E-1,1.516180038E-1,-4.753475189E-1,5.274951598E-1
1.213134420E-1,-1.541345119E-1,1.173691750E-1,-4.572873116E-1,4.966333218E-1
1.260552650E-1,-1.716789007E-1,6.825542450E-2,-4.203963280E-1,4.592009587E-1
1.307970880E-1,-1.718263626E-1,5.213403702E-2,-3.334746361E-1,3.787447552E-1
1.355389110E-1,-1.300567389E-1,3.519105911E-2,-1.959385872E-1,2.377921275E-1
1.402807860E-1,-8.431255817E-2,2.842378616E-2,-4.554319382E-2,9.995349713E-2
1.450226090E-1,-5.227875710E-2,1.385688782E-3,1.068286896E-1,1.189426647E-1
1.497644310E-1,-2.353274822E-2,-3.393077850E-2,2.986416817E-1,3.014829050E-1
1.545062540E-1,1.012127399E-1,-7.072019577E-2,4.743213654E-1,4.901286795E-1
1.592481290E-1,1.262153387E-1,-8.862066269E-2,6.400113106E-1,6.583300170E-1
1.639899520E-1,8.108091354E-2,-7.720565796E-2,7.255969048E-1,7.341836939E-1
1.687317750E-1,6.485807896E-2,-8.816671371E-2,7.158532143E-1,7.241724685E-1
1.734736500E-1,4.843008518E-2,-6.059837341E-2,6.001615524E-1,6.051541333E-1
1.782154730E-1,7.293331623E-2,-4.779338837E-3,4.347434044E-1,4.408445739E-1
1.829572960E-1,5.556714535E-2,3.722476959E-2,2.620530128E-1,2.704536423E-1
1.876991190E-1,2.714204788E-2,5.937051773E-2,4.679393768E-2,8.031949790E-2
1.924409420E-1,-7.983565331E-3,8.352470398E-2,-1.595454216E-1,1.802632937E-1
1.971828170E-1,-1.996290684E-2,8.912944794E-2,-3.185844421E-1,3.314191046E-1
2.019246400E-1,-9.762763977E-3,8.868408203E-2,-4.532418251E-1,4.619397471E-1
2.066664630E-1,-2.468800545E-2,7.798385620E-2,-5.786471367E-1,5.844001097E-1
2.114082860E-1,-7.568085194E-2,8.057355881E-2,-6.208539009E-1,6.306181539E-1
2.161501610E-1,-1.498351097E-1,6.109046936E-2,-5.727739334E-1,5.951912166E-1
2.208919840E-1,-1.740334034E-1,2.463054657E-2,-4.854893684E-1,5.163276249E-1
2.256338060E-1,-1.630256176E-1,2.956008911E-2,-3.362178802E-1,3.748247775E-1
2.303756290E-1,-1.475473642E-1,2.570915222E-2,-2.031087875E-1,2.523576129E-1
2.351175040E-1,-1.295100451E-1,-5.138397217E-3,-8.797359467E-2,1.566480394E-1
2.398593270E-1,-2.436017990E-2,-7.556915283E-2,-4.321527481E-1,4.393860636E-1
2.446011500E-1,1.165747643E-2,-5.965471268E-2,-1.071662903E-1,1.232038769E-1
2.493429730E-1,9.437382221E-2,-9.357929230E-3,8.899545670E-2,1.300545288E-1
2.540847960E-1,1.408816576E-1,5.347681046E-2,1.688699722E-1,2.263282533E-1
2.588266710E-1,7.763898373E-2,1.005868912E-1,3.131027222E-1,3.379036092E-1
2.635684940E-1,-3.462457657E-2,7.618999481E-2,3.049015999E-1,3.161783709E-1
2.683103170E-1,-2.052476406E-1,4.255867004E-2,2.833185196E-1,3.524304441E-1
2.730521400E-1,-4.926240444E-1,4.147911072E-2,4.129352570E-1,6.441385660E-1
2.777940150E-1,-1.113403082E0,-7.124948502E-2,6.135792732E-1,1.273272334E0
2.825358380E-1,-9.513765574E-1,1.498894691E-1,7.245349884E-1,1.205211665E0
2.872776610E-1,-7.277760506E-1,3.605370522E-1,7.359933853E-1,1.096052558E0
2.920194840E-1,-6.284840107E-1,4.860563278E-1,7.367630005E-1,1.083541704E0
2.967613060E-1,-7.353390455E-1,4.269499779E-1,6.990451813E-1,1.100760628E0
3.015031810E-1,-9.388753176E-1,2.946662903E-1,6.094183922E-1,1.157456635E0
3.062450040E-1,-1.070574284E0,1.891965866E-1,4.781346321E-1,1.187660461E0
3.109868270E-1,-1.068095803E0,1.713910103E-1,3.574271202E-1,1.139279452E0
3.157286500E-1,-1.022913098E0,2.093863487E-1,2.421951294E-1,1.071845292E0
3.204704730E-1,-9.523252249E-1,2.671303749E-1,1.697597504E-1,1.003543892E0
3.252123480E-1,-8.663843870E-1,2.642498016E-1,1.063909531E-1,9.120136505E-1
3.299541710E-1,-8.454648256E-1,2.324304581E-1,1.012597084E-1,8.826597406E-1
3.346959940E-1,-8.227161169E-1,2.428169250E-1,1.203732491E-1,8.662052801E-1
3.394378170E-1,-7.699613571E-1,2.404608727E-1,1.233625412E-1,8.160148524E-1
3.441796400E-1,-7.536903620E-1,2.281284332E-1,1.268105507E-1,7.976043252E-1
3.489215150E-1,-7.264459133E-1,2.130837440E-1,1.259078979E-1,7.674510706E-1
3.536633380E-1,-7.523586750E-1,1.530361176E-1,1.111359596E-1,7.757672529E-1
3.584051610E-1,-7.982180119E-1,1.218819618E-1,5.179548264E-2,8.091291486E-1
3.631469840E-1,-6.290694475E-1,-1.440987587E-1,-4.727306366E-1,7.999794228E-1
3.678888060E-1,-2.770328522E-1,-6.748714447E-1,-1.560089111E0,1.722230154E0
3.726306810E-1,1.004865170E-1,-9.934129715E-1,-2.198944092E0,2.415020081E0
3.773725040E-1,3.907914162E-1,-1.305876732E0,-2.088848114E0,2.494257086E0
3.821143270E-1,8.181720972E-1,-1.277174950E0,-1.610004425E0,2.211943869E0
3.868561500E-1,1.159776568E0,-8.791971207E-1,-9.097871780E-1,1.716328050E0
3.915979730E-1,1.099500299E0,-1.416568756E-1,5.143785477E-2,1.109780803E0
3.963398480E-1,1.009644985E0,4.713902473E-1,8.022303581E-1,1.373013222E0
4.010816710E-1,1.189661503E0,4.292922020E-1,8.240847588E-1,1.509537007E0
4.058234940E-1,1.348800182E0,2.781701088E-1,7.578887939E-1,1.571952914E0
4.105653170E-1,1.049141884E0,3.237390518E-2,7.211303711E-1,1.273489605E0
4.153071400E-1,3.837471008E-1,-1.661329269E-1,8.203587532E-1,9.207879619E-1
4.200490150E-1,-2.480318546E-1,-1.741704941E-1,9.618930817E-1,1.008510517E0
4.247908380E-1,-6.676087379E-1,4.611301422E-2,1.048144817E0,1.243557556E0
4.295326610E-1,-8.573887348E-1,3.029999733E-1,9.068822861E-1,1.284274078E0
4.342744840E-1,-1.000986695E0,5.492930412E-1,5.734286308E-1,1.277700123E0
4.390163060E-1,-1.222769856E0,6.343131065E-1,1.512298584E-1,1.385781263E0
4.437581810E-1,-1.567492366E0,5.416059494E-1,-2.409811020E-1,1.675840450E0
4.485000040E-1,-1.854889274E0,3.210377693E-1,-5.805001259E-1,1.969939051E0
4.532418270E-1,-1.764560699E0,3.366432190E-1,-9.229860306E-1,2.019630246E0
4.579836500E-1,-1.444262147E0,4.516816139E-1,-1.193231583E0,1.927099125E0
4.627254730E-1,-1.052998781E0,4.147853851E-1,-1.252572060E0,1.688132137E0
4.674672960E-1,-6.656039953E-1,3.035292625E-1,-1.136345387E0,1.351458297E0
4.722091710E-1,-4.521012306E-1,1.040620804E-1,-9.905128479E-1,1.093773350E0
4.769509940E-1,-1.793272495E-1,-4.321765900E-2,-8.840141296E-1,9.030542674E-1
4.816928170E-1,2.670509815E-1,3.105640411E-3,-6.413044930E-1,6.946922516E-1
4.864346400E-1,5.379456878E-1,6.570816040E-3,-3.754353523E-1,6.560338729E-1
4.911764630E-1,6.211652160E-1,-6.073284149E-2,-1.557235718E-1,6.432608603E-1
4.959183380E-1,5.236718655E-1,-1.718201637E-1,7.706975937E-2,5.565016973E-1
5.006601610E-1,2.718933821E-1,-3.523454666E-1,4.647884369E-1,6.435072883E-1
5.054019840E-1,-1.401329041E-1,-4.598207474E-1,9.113750458E-1,1.030377030E0
5.101438060E-1,-4.453104734E-1,-5.027856827E-1,1.286560059E0,1.451320655E0
5.148856290E-1,-6.710984707E-1,-5.868062973E-1,1.335683346E0,1.605853290E0
5.196275040E-1,-6.768505573E-1,-6.480035782E-1,1.005477428E0,1.374416303E0
5.243693270E-1,-6.535085440E-1,-9.334273338E-1,3.992915154E-1,1.207391287E0
5.291111500E-1,-1.313805580E-1,-8.313670158E-1,-1.389117241E-1,8.530700048E-1
5.338529730E-1,6.398139596E-1,-6.955747604E-1,-3.893151283E-1,1.022131312E0
5.385947960E-1,1.185007453E0,-6.391620636E-1,-1.577506065E-1,1.355601734E0
5.433366190E-1,1.390983820E0,-5.682168007E-1,1.268944740E-1,1.507915292E0
5.480784940E-1,1.476283789E0,-5.252075195E-1,3.835773468E-1,1.613191974E0
5.528203170E-1,1.608399630E0,-5.594978333E-1,5.437402725E-1,1.787635499E0
5.575621400E-1,1.753857136E0,-5.826964378E-1,5.654797554E-1,1.932696910E0
5.623039630E-1,1.900498629E0,-5.572366714E-1,3.170557022E-1,2.005724823E0
5.670457860E-1,2.116154671E0,-4.648904800E-1,9.507656097E-3,2.166638905E0
5.717876090E-1,2.299393654E0,-3.704895973E-1,-3.094496727E-1,2.349517571E0
5.765294840E-1,2.334956884E0,-3.594532013E-1,-6.021981239E-1,2.438005914E0
5.812713060E-1,2.113902807E0,-4.639911652E-1,-7.675232887E-1,2.296293727E0
5.860131290E-1,1.792985797E0,-6.163682938E-1,-7.761406898E-1,2.048683068E0
5.907549520E-1,1.579090357E0,-7.399945259E-1,-6.035389900E-1,1.845366513E0
5.954967750E-1,1.300970793E0,-1.025172234E0,-5.028629303E-1,1.731003824E0
6.002385980E-1,7.186081409E-1,-1.644413948E0,-7.177534103E-1,1.932786809E0
6.049804730E-1,5.740290880E-1,-1.761764526E0,-4.454231262E-1,1.905708635E0
6.097222960E-1,6.974582076E-1,-1.666532993E0,2.088975906E-2,1.806714297E0
6.144641190E-1,6.346722841E-1,-1.695463181E0,2.194261551E-1,1.823609646E0
6.192059420E-1,6.851407290E-1,-1.584161282E0,3.402881622E-1,1.759198914E0
6.239477650E-1,8.614284992E-1,-1.345684528E0,5.006790161E-1,1.674397022E0
6.286895880E-1,1.376494169E0,-6.864328384E-1,2.623796463E-1,1.560374737E0
6.334314110E-1,3.216702223E0,1.197928429E0,-2.239510536E0,4.098489130E0
6.381732860E-1,3.590355635E0,1.522477627E0,-3.335496426E0,5.131678879E0
6.429151090E-1,3.311907530E0,1.219735622E0,-3.696941137E0,5.111150580E0
6.476569310E-1,2.664721012E0,4.616637230E-1,-3.559455395E0,4.470301351E0
6.523987540E-1,2.430232763E0,-6.820740700E-1,-3.024351120E0,3.939283693E0
6.571405770E-1,2.202095509E0,-1.453187466E0,-1.801070690E0,3.194500598E0
6.618824000E-1,2.427879572E0,-1.555449486E0,1.634788513E-2,2.883450983E0
6.666242750E-1,2.660349607E0,-1.206726074E0,1.953468323E0,3.514212051E0
6.713660980E-1,2.752847195E0,-7.641482353E-1,3.495401382E0,4.514412589E0
6.761079210E-1,2.696993351E0,-3.146028519E-1,4.486408234E0,5.244102109E0
6.808497440E-1,2.530375242E0,1.038265228E-1,5.030370712E0,5.631892073E0
6.855915670E-1,2.119781971E0,4.990863800E-1,5.284590721E0,5.715720594E0
6.903333900E-1,1.391938567E0,5.338544846E-1,5.227264404E0,5.435695608E0
6.950752650E-1,5.769767761E-1,2.955145836E-1,4.865622520E0,4.908616259E0
6.998170880E-1,-2.406676412E-1,-1.556081772E-1,4.456492424E0,4.465698103E0
7.045589110E-1,-8.864455223E-1,-6.475939751E-1,4.197710037E0,4.338886168E0
7.093007340E-1,-1.263509274E0,-1.015945435E0,4.190388680E0,4.493101167E0
7.140425560E-1,-1.314906120E0,-1.205879688E0,4.475439072E0,4.817953799E0
7.187843790E-1,-1.513148069E0,-1.315388203E0,4.382778168E0,4.819606589E0
7.235262020E-1,-1.821505070E0,-1.454260349E0,4.283750534E0,4.876809666E0
7.282680770E-1,-3.060316324E0,-2.775323629E0,4.133470535E0,5.844102662E0
7.330099000E-1,-3.283462763E0,-3.003179073E0,3.834468842E0,5.873956380E0
7.377517230E-1,-2.350390434E0,-2.402848482E0,3.262263298E0,4.684055705E0
7.424935460E-1,-4.068795443E-1,-1.057975769E0,1.584712982E0,1.948378538E0
7.472353690E-1,3.754502535E-1,2.841358185E-1,-1.224427700E0,1.311838118E0
7.519771920E-1,8.577367663E-1,8.533744812E-1,-1.807789326E0,2.175330460E0
7.567190150E-1,1.276202440E0,9.341955185E-1,-7.128443718E-1,1.734808645E0
7.614608380E-1,1.277158499E0,9.166984558E-1,1.034841537E-1,1.575493212E0
7.662027130E-1,1.125945210E0,1.050549030E0,2.848544121E-1,1.566061275E0
7.709445360E-1,1.086287856E0,1.546174049E0,6.874513626E-2,1.890873182E0
7.756863590E-1,9.408206940E-1,2.072715282E0,-4.043984413E-1,2.311888907E0
7.804281810E-1,6.363546848E-1,2.384841919E0,-1.059840679E0,2.686201878E0
7.851700040E-1,4.676617384E-1,2.529671192E0,-1.961971283E0,3.235316856E0
7.899118270E-1,5.118783712E-1,2.525846958E0,-2.923007488E0,3.896908403E0
7.946536500E-1,3.548822403E-1,2.290062428E0,-3.742200613E0,4.401635236E0
7.993955250E-1,-7.883787155E-2,1.801275253E0,-4.345986843E0,4.705147138E0
8.041373480E-1,-5.957598686E-1,1.014955044E0,-4.763021469E0,4.906265084E0
8.088791710E-1,-1.754303694E0,-4.026985168E-2,-5.212041855E0,5.499507560E0
8.136209940E-1,-2.404193878E0,-5.068292618E-1,-5.581791878E0,6.098641215E0
8.183628170E-1,-3.214286566E0,-6.155762672E-1,-5.873255730E0,6.723518806E0
8.231046400E-1,-3.727527142E0,-4.497671127E-1,-5.915629387E0,7.006526963E0
8.278464630E-1,-3.922918797E0,-1.187620163E-1,-5.457271099E0,6.721994061E0
8.325882860E-1,-3.761642694E0,2.850871086E-1,-4.556748390E0,5.915672938E0
8.373301610E-1,-3.387367249E0,6.276073456E-1,-3.512644768E0,4.920042797E0
8.420719840E-1,-2.455711365E0,8.596005440E-1,-2.464657307E0,3.583848077E0
8.468138060E-1,-1.602415800E0,7.945680618E-1,-1.718552113E0,2.480422578E0
8.515556290E-1,-1.348546505E0,3.493714333E-1,-1.254944801E0,1.874973207E0
8.562974520E-1,-1.222685337E0,-1.993293762E-1,-7.072806358E-1,1.426512366E0
8.610392750E-1,-9.418995380E-1,-7.376856804E-1,-2.352375984E-1,1.219299648E0
8.657810980E-1,-4.886877537E-1,-1.227591038E0,-2.666282654E-2,1.321554533E0
8.705229210E-1,-1.021158695E-1,-1.607210398E0,9.851694107E-2,1.613461652E0
8.752647440E-1,1.186406612E-1,-1.855581760E0,2.697172165E-1,1.878831193E0
8.800066190E-1,2.893261909E-1,-1.821111202E0,6.611309052E-1,1.958889923E0
8.847484420E-1,3.530049324E-1,-1.474444151E0,1.508615017E0,2.138812125E0
8.894902650E-1,4.173247814E-1,-1.118725777E0,1.935112476E0,2.273844241E0
8.942320880E-1,6.068158150E-1,-5.935454369E-1,2.888097763E0,3.010254193E0
8.989739110E-1,6.652617455E-1,-1.911549568E-1,3.315745354E0,3.387223149E0
9.037157340E-1,8.767105341E-1,6.234931946E-2,3.065407753E0,3.188923563E0
9.084575560E-1,1.059708953E0,6.259918213E-2,2.491563797E0,2.708282090E0
9.131993790E-1,1.142625570E0,-1.198863983E-1,1.792088032E0,2.128742694E0
9.179412020E-1,4.117561579E-1,-1.252169132E0,2.500821114E0,2.826937727E0
9.226830770E-1,4.957256317E-1,-1.815443754E0,2.177662373E0,2.878157976E0
9.274249000E-1,1.121515751E0,-1.583262682E0,-5.363168716E-1,2.012996296E0
9.321667230E-1,9.414781332E-1,-1.780390978E0,-9.440207481E-1,2.224263537E0
9.369085460E-1,6.002956629E-1,-2.039543629E0,-4.929327965E-1,2.182447213E0
9.416503690E-1,8.783769608E-1,-1.824509144E0,-3.709645271E-1,2.058638963E0
9.463921920E-1,1.330696821E0,-1.189168453E0,-5.334520340E-1,1.862645085E0
9.511340150E-1,1.513542414E0,-6.280493736E-1,-3.280949593E-1,1.671198060E0
9.558758380E-1,1.190124989E0,-2.634916306E-1,2.678985596E-1,1.248036444E0
9.606176610E-1,5.537430048E-1,-1.885108948E-1,1.149612427E0,1.289874569E0
9.653595360E-1,-6.203138828E-1,7.756662369E-2,3.127233505E0,3.189105720E0
9.701013590E-1,-2.786015272E0,7.814841270E-1,3.787636757E0,4.766423265E0
9.748431810E-1,-4.514315605E0,7.966732979E-1,2.426050186E0,5.186468281E0
9.795850040E-1,-5.065044880E0,2.561235428E-1,1.155588150E0,5.201505828E0
9.843268270E-1,-4.745309353E0,-7.682743073E-1,6.448936462E-2,4.807532126E0
9.890686500E-1,-4.080532551E0,-1.951633692E0,-1.090186119E0,4.652754640E0
9.938104730E-1,-3.612524509E0,-2.149409533E0,-1.002189636E0,4.321420916E0
9.985522960E-1,-2.999767780E0,-1.734170675E0,-2.501082420E-1,3.473975935E0
1.003294119E0,-2.458572865E0,-1.154674530E0,8.668041229E-2,2.717603226E0
1.008035942E0,-2.530539036E0,-8.292942047E-1,-1.134709835E0,2.894636955E0
1.012777765E0,-2.369320631E0,-4.269566536E-1,-1.133105755E0,2.660808315E0
1.017519640E0,-1.740738750E0,-3.359756470E-1,-6.995944977E-1,1.905907524E0
1.022261463E0,-9.648450613E-1,-5.020956993E-1,-4.385862350E-1,1.172767654E0
1.027003286E0,-5.266530514E-1,-7.766461372E-1,-1.582727432E-1,9.516264605E-1
1.031745109E0,-2.923992872E-1,-9.692873955E-1,3.442955017E-1,1.069371213E0
1.036486931E0,-1.938322783E-1,-1.071864605E0,9.113626480E-1,1.420227644E0
1.041228754E0,-3.350874186E-1,-1.195413113E0,1.428767204E0,1.892794709E0
1.045970577E0,-5.712029934E-1,-1.419284821E0,1.777858734E0,2.345511445E0
1.050712400E0,-8.435126543E-1,-1.648359776E0,1.849830627E0,2.617341571E0
1.055454223E0,-1.254909754E0,-1.780891657E0,1.860699654E0,2.865061393E0
1.060196046E0,-1.656246662E0,-1.899298906E0,1.906681061E0,3.160050950E0
1.064937869E0,-1.955490708E0,-1.954929113E0,2.076792717E0,3.458143973E0
1.069679744E0,-2.260375023E0,-1.968524456E0,2.157067299E0,3.692874640E0
1.074421567E0,-2.504907370E0,-2.122263432E0,1.819936752E0,3.753762484E0
1.079163390E0,-2.646127939E0,-2.393657207E0,1.139070511E0,3.745539951E0
1.083905213E0,-2.782999754E0,-2.566028118E0,1.918725967E-1,3.790303817E0
1.088647036E0,-2.771189451E0,-2.625723600E0,-1.047395229E0,3.958655348E0
1.093388859E0,-2.731162071E0,-2.642683029E0,-2.227632999E0,4.405152510E0
1.098130681E0,-2.626937866E0,-2.694307804E0,-2.896331310E0,4.748561062E0
1.102872504E0,-2.629380465E0,-2.841373920E0,-3.293875694E0,5.082977914E0
1.107614327E0,-2.863616943E0,-3.132628202E0,-3.356777191E0,5.411248891E0
1.112356150E0,-3.795615435E0,-3.402051687E0,-3.364804268E0,6.107582171E0
1.117097973E0,-4.409772873E0,-3.681022644E0,-2.644775867E0,6.323833006E0
1.121839796E0,-4.509957790E0,-4.294116020E0,-1.847276211E0,6.495504681E0
1.126581619E0,-4.434196949E0,-4.843812466E0,-1.484916687E0,6.732725997E0
1.131323442E0,-4.643907547E0,-5.146268368E0,-1.350816727E0,7.062199462E0
1.136065265E0,-4.985056877E0,-5.335526466E0,-1.381763458E0,7.431547954E0
1.140807140E0,-5.086026192E0,-5.630788803E0,-1.624203205E0,7.759605726E0
1.145548963E0,-4.929450989E0,-5.916522026E0,-1.969310284E0,7.948767384E0
1.150290786E0,-5.041186810E0,-6.084723473E0,-2.182375908E0,8.197572128E0
1.155032609E0,-4.480404854E0,-6.195001602E0,-2.284662485E0,7.979458326E0
1.159774431E0,-4.366490841E0,-6.246922970E0,-2.550565243E0,8.037143268E0
1.164516254E0,-4.343822479E0,-6.325321198E0,-3.365878344E0,8.378998688E0
1.169258077E0,-4.037121296E0,-6.409946918E0,-4.020187855E0,8.575994301E0
1.173999900E0,-3.696214199E0,-6.530869007E0,-4.319139957E0,8.658476735E0
1.178741723E0,-3.307548523E0,-6.599280834E0,-4.230680466E0,8.508175008E0
1.183483546E0,-2.676098347E0,-6.126625061E0,-2.848926067E0,7.267284000E0
1.188225369E0,-2.410670280E0,-6.729153156E0,-2.924079895E0,7.722893022E0
1.192967192E0,-2.404838324E0,-7.156847000E0,-3.052567005E0,8.143824143E0
1.197709015E0,-2.362003803E0,-7.030447960E0,-3.026344776E0,8.010307309E0
1.202450838E0,-2.248757601E0,-6.685715199E0,-2.876383543E0,7.617695239E0
1.207192661E0,-1.938109875E0,-6.202804089E0,-2.585680962E0,6.994054224E0
1.211934484E0,-1.363341331E0,-5.900299549E0,-2.303876877E0,6.479203888E0
1.216676306E0,-7.923302650E-1,-5.780376911E0,-2.280420780E0,6.264252822E0
1.221418181E0,-3.559136391E-1,-5.565955639E0,-2.469305277E0,6.099508607E0
1.226160004E0,-6.535005569E-2,-5.100376606E0,-2.598491907E0,5.724532500E0
1.230901827E0,3.303847313E-1,-4.585555077E0,-2.397290945E0,5.184927512E0
1.235643650E0,1.167165279E0,-4.132361412E0,-1.968209267E0,4.723614437E0
1.240385473E0,2.123503685E0,-3.517693758E0,-1.696094871E0,4.445241848E0
1.245127296E0,3.153494835E0,-2.736827374E0,-1.576838017E0,4.463314002E0
1.249869119E0,4.178066730E0,-1.813831329E0,-1.531894684E0,4.805510068E0
1.254610942E0,4.986857891E0,-1.048772335E0,-1.725886106E0,5.380274890E0
1.259352765E0,5.727839947E0,-5.280590057E-1,-2.162073135E0,6.145043288E0
1.264094588E0,6.398420334E0,-8.989095688E-2,-2.723881006E0,6.954666842E0
1.268836411E0,6.967461586E0,4.270825386E-1,-3.397786617E0,7.763560674E0
1.273578234E0,7.415789604E0,9.691925049E-1,-4.081488132E0,8.520083036E0
1.278320056E0,7.779428005E0,1.542307377E0,-4.634336472E0,9.185602139E0
1.283061879E0,7.989130020E0,2.071504116E0,-5.072777271E0,9.687641458E0
1.287803702E0,7.978286266E0,2.460958958E0,-5.499593258E0,9.997744583E0
1.292545525E0,7.816459656E0,2.720458984E0,-5.595896721E0,9.990595515E0
1.297287348E0,7.329639912E0,3.074531555E0,-5.193974495E0,9.494932152E0
1.302029171E0,6.484829903E0,3.337140560E0,-4.748241425E0,8.702604358E0
1.306770994E0,5.568447590E0,3.345013142E0,-4.415476322E0,7.854498878E0
1.311512817E0,4.685228348E0,3.323948860E0,-3.432953358E0,6.692172252E0
1.316254640E0,5.078549385E0,3.762124538E0,6.632349491E-1,6.354929228E0
1.320996463E0,4.712558746E0,3.128389835E0,1.890817165E0,5.964077670E0
1.325738286E0,3.237030983E0,2.183877468E0,1.249316454E0,4.099814872E0
1.330480109E0,1.969242096E0,1.778323650E0,1.047227740E0,2.852548926E0
1.335221931E0,1.228209496E0,1.731048107E0,1.769187212E0,2.763159334E0
1.339963754E0,8.213529587E-1,1.575619698E0,2.933172226E0,3.429387324E0
1.344705577E0,7.331037521E-1,1.322000980E0,3.529274940E0,3.839389184E0
1.349447400E0,8.979330063E-1,1.323070526E0,3.490612507E0,3.839423782E0
1.354189223E0,1.114274025E0,1.601380825E0,2.837885380E0,3.443779984E0
1.358931046E0,9.061965942E-1,1.779664516E0,1.571466804E0,2.541241030E0
1.363672869E0,2.767486572E-1,1.730607986E0,5.110498667E-1,1.825586423E0
1.368414692E0,-6.087708473E-1,1.493824482E0,5.215743065E0,5.459495329E0
1.373156515E0,-6.757730484E0,-1.952119112E0,2.246845818E1,2.354377419E1
1.377898338E0,-8.287259102E0,-2.759421825E0,1.163244438E1,1.454671216E1
1.382640161E0,-3.308522701E0,-2.014458895E0,2.954558849E0,4.871733274E0
1.387381984E0,2.297831535E0,-4.956123829E-1,8.434677124E-1,2.497418503E0
1.392123806E0,3.186994553E0,1.396495819E0,-1.780661941E-1,3.484084158E0
1.396865629E0,1.231663704E0,2.056874752E0,4.960510731E-1,2.448223007E0
1.401607452E0,3.739204407E-1,1.588163614E0,1.249447584E0,2.055042439E0
1.406349275E0,-1.795644760E-1,7.003166676E-1,9.660757184E-1,1.206643746E0
1.411091098E0,-4.177951813E-1,1.034624577E0,-4.822349548E-2,1.116837649E0
1.415832921E0,1.666193008E-1,1.271404266E0,-1.167312860E0,1.734027138E0
1.420574744E0,1.576286316E0,1.038834810E0,-2.632364750E0,3.239320992E0
1.425316567E0,2.876268387E0,8.892703056E-1,-3.629588842E0,4.715679874E0
1.430058390E0,3.678379059E0,1.042520046E0,-4.191934109E0,5.673590761E0
1.434800213E0,3.881511688E0,1.215613842E0,-4.249487400E0,5.882345889E0
1.439542036E0,3.739947319E0,1.311638832E0,-3.864826918E0,5.535746515E0
1.444283859E0,4.037293434E0,1.583729267E0,-3.307595730E0,5.454184282E0
1.449025681E0,4.856019020E0,2.034572363E0,-2.983391285E0,6.051531127E0
1.453767504E0,5.908629417E0,2.504218340E0,-3.016285896E0,7.090909088E0
1.458509327E0,6.715094566E0,2.831503630E0,-3.294877529E0,7.997882581E0
1.463251150E0,7.114080429E0,2.890036821E0,-3.376551628E0,8.388298640E0
1.467992973E0,6.965998650E0,2.712178469E0,-3.144893646E0,8.109957169E0
1.472734796E0,6.413160324E0,2.476204395E0,-2.857785702E0,7.444941415E0
1.477476619E0,5.831382751E0,2.433395147E0,-2.630352259E0,6.844354589E0
1.482218442E0,5.566692352E0,2.451939106E0,-2.839963436E0,6.713081367E0
1.486960265E0,5.520159721E0,2.466816187E0,-3.472134829E0,6.972307058E0
1.491702088E0,5.373537064E0,2.389273167E0,-4.309504032E0,7.290771690E0
1.496443911E0,5.878599167E0,2.767683983E0,-6.646610737E0,9.294914582E0
1.501185734E0,5.830141068E0,2.503462791E0,-7.518418789E0,9.837910952E0
1.505927556E0,4.892953873E0,1.911079884E0,-7.362040997E0,9.043941152E0
1.510669379E0,3.489194870E0,1.393028736E0,-7.290327549E0,8.201456314E0
1.515411202E0,1.851143837E0,9.279239178E-1,-6.825563908E0,7.132748345E0
1.520153025E0,3.299379349E-1,3.214693069E-1,-5.358274937E0,5.378039778E0
1.524894848E0,-5.145463943E-1,-4.337973595E-1,-3.958157301E0,4.014965425E0
1.529636671E0,-8.852138519E-1,-6.230790615E-1,-2.770540237E0,2.974512445E0
1.534378494E0,-1.504051208E0,-9.696416855E-1,-6.014924049E-1,1.887900461E0
1.539120317E0,-1.716179848E0,-1.386037827E0,1.166845202E0,2.495576457E0
1.543862140E0,-1.687619686E0,-2.212518454E0,3.002513885E0,4.093700984E0
1.548603963E0,-3.508306026E0,-4.048729897E0,5.957974434E0,8.012358224E0
1.553345786E0,-7.522789001E0,-6.064291954E0,8.386892319E0,1.279484091E1
1.558087609E0,-1.085913563E1,-7.283779144E0,8.414119720E0,1.554900884E1
1.562829431E0,-1.057363129E1,-6.720045090E0,5.984199524E0,1.388421148E1
1.567571254E0,-7.279510975E0,-4.539851189E0,3.254229069E0,9.175594568E0
1.572313077E0,-3.325508595E0,-1.892865062E0,9.124158025E-1,3.933757510E0
1.577054900E0,-1.202173233E-1,6.617045403E-2,-7.573995590E-1,7.697303592E-1
1.581796723E0,2.144020081E0,9.081153870E-1,-1.736980677E0,2.904926425E0
1.586538546E0,4.146390915E0,1.197944403E0,-2.374077320E0,4.925837140E0
1.591280369E0,6.380125046E0,1.608161926E0,-3.189720154E0,7.312078709E0
1.596022192E0,7.861359596E0,2.173140764E0,-4.907956123E0,9.519009864E0
1.600764015E0,7.212251663E0,2.530771494E0,-6.213272095E0,9.850184188E0
1.605505838E0,4.979943275E0,2.388414860E0,-6.367192745E0,8.428849508E0
1.610247609E0,2.585741043E0,1.688583851E0,-5.968323708E0,6.719989586E0
1.614989431E0,6.902637482E-1,9.272561073E-1,-4.778063297E0,4.915908543E0
1.619731254E0,-4.650621414E-1,5.452206135E-1,-2.445483208E0,2.548320316E0
1.624473077E0,-1.185657501E0,4.102327824E-1,-1.789460033E-1,1.267318554E0
1.629214900E0,-1.443989754E0,3.799924850E-1,1.719475389E0,2.277300224E0
1.633956723E0,-1.071322441E0,9.583413601E-1,3.126801491E0,3.441371456E0
1.638698546E0,-1.907253265E-1,1.657493353E0,3.117959023E0,3.536287436E0
1.643440369E0,8.026752472E-1,2.101889849E0,2.326412439E0,3.236421377E0
1.648182192E0,1.737031937E0,2.415729284E0,1.904371142E0,3.532655852E0
1.652924015E0,2.944906235E0,2.755643368E0,2.341175556E0,4.663383545E0
1.657665838E0,3.303896904E0,2.970507622E0,3.162713528E0,5.453659977E0
1.662407661E0,3.033677101E0,3.010771036E0,3.997033596E0,5.851855821E0
1.667149484E0,2.575330734E0,2.843736172E0,4.349397659E0,5.799691699E0
1.671891306E0,2.099050522E0,2.467633963E0,3.899599075E0,5.069724195E0
1.676633129E0,1.478357315E0,2.021925926E0,3.071640491E0,3.963420254E0
1.681374952E0,9.476423264E-1,1.738534927E0,2.480442286E0,3.173818458E0
1.686116775E0,2.843780518E-1,1.801415682E0,1.919650316E0,2.647834336E0
1.690858598E0,-2.891168594E-1,1.925501585E0,1.494078279E0,2.454264618E0
1.695600369E0,-3.740434647E-1,1.820614576E0,8.355402946E-1,2.037810966E0
1.700342192E0,-4.346714020E-1,1.715878487E0,1.251025200E-1,1.774493970E0
1.705084015E0,-7.814016342E-1,1.816547394E0,-6.433733106E-1,2.079510078E0
1.709825838E0,-9.238576889E-1,1.596501350E0,-1.356851578E0,2.289841871E0
1.714567661E0,-1.108951092E0,1.210497379E0,-1.785888433E0,2.425793463E0
1.719309484E0,-3.089960575E0,2.196869850E0,-1.990357399E0,4.282010751E0
1.724051306E0,-3.620077133E0,2.260654449E0,-2.028733969E0,4.725598217E0
1.728793129E0,-3.873654366E0,2.288391590E0,-1.992933750E0,4.920743759E0
1.733534952E0,-4.100438118E0,2.261813164E0,-2.016314268E0,5.098520842E0
1.738276775E0,-4.164957523E0,2.248487473E0,-2.118211031E0,5.185497571E0
1.743018598E0,-4.007790089E0,2.331825733E0,-2.149543047E0,5.110805020E0
1.747760421E0,-3.404633999E0,2.715888500E0,-2.102794647E0,4.836251476E0
1.752502244E0,-2.991786003E0,3.260850430E0,-1.563479424E0,4.693441905E0
1.757244015E0,-3.453513622E0,2.680042267E0,-3.843911290E-1,4.388295732E0
1.761985838E0,-3.573874950E0,2.014795780E0,4.653785229E-1,4.128990357E0
1.766727661E0,-3.415318966E0,1.462877750E0,1.108610272E0,3.877296956E0
1.771469484E0,-3.016435623E0,1.064046383E0,1.714735985E0,3.629242079E0
1.776211306E0,-2.432593822E0,8.843998909E-1,2.239058018E0,3.422434321E0
1.780953129E0,-2.153946400E0,7.588901520E-1,2.699433088E0,3.535864584E0
1.785694952E0,-2.232739925E0,5.115695000E-1,3.313744068E0,4.028365758E0
1.790436775E0,-2.205314159E0,2.366247177E-1,3.845612764E0,4.439385017E0
1.795178598E0,-2.065236092E0,-1.010904312E-1,4.362571716E0,4.827779134E0
1.799920421E0,-1.961323261E0,-4.196200371E-1,4.740916729E0,5.147733612E0
1.804662244E0,-1.776923180E0,-6.396684647E-1,4.866223812E0,5.219843477E0
1.809404067E0,-1.519788742E0,-7.729620934E-1,4.781338692E0,5.076261213E0
1.814145838E0,-1.221385479E0,-8.529148102E-1,4.691353798E0,4.922199368E0
1.818887661E0,-1.015652657E0,-8.175339699E-1,4.793829441E0,4.967968682E0
1.823629484E0,-1.041007996E0,-7.601218224E-1,5.082857609E0,5.243750976E0
1.828371306E0,-1.075133324E0,-7.973957062E-1,5.433058739E0,5.595523106E0
1.833113129E0,-8.726086617E-1,-1.019293785E0,5.650101662E0,5.807241556E0
1.837854952E0,-6.185607910E-1,-1.276676178E0,5.557451248E0,5.735658976E0
1.842596775E0,-4.067778587E-1,-1.528402805E0,5.415985107E0,5.642196208E0
1.847338598E0,-2.113542557E-1,-1.707228661E0,5.394816399E0,5.662450379E0
1.852080421E0,-1.571750641E-2,-1.791770935E0,5.425889969E0,5.714102911E0
1.856822244E0,6.214661598E-1,-1.469045639E0,5.374272346E0,5.605989523E0
1.861564015E0,1.699384212E0,-1.824613571E0,3.800941706E0,4.545797976E0
1.866305838E0,2.322512150E0,-1.499693871E0,2.872463465E0,3.986751904E0
1.871047661E0,2.048947334E0,-1.282784462E0,3.511063337E0,4.262779248E0
1.875789484E0,1.863881111E0,-1.432834148E0,3.675675392E0,4.363216254E0
1.880531306E0,2.154146194E0,-1.750947952E0,2.953547716E0,4.053345368E0
1.885273129E0,2.410604477E0,-2.058326244E0,1.935099840E0,3.713802938E0
1.890014952E0,2.447848320E0,-2.269788265E0,1.266799688E0,3.570529599E0
1.894756775E0,2.617942810E0,-2.209388733E0,1.215358019E0,3.634847761E0
1.899498598E0,2.896821022E0,-1.952034473E0,1.545768976E0,3.819870724E0
1.904240369E0,3.157723904E0,-1.629659176E0,1.949595928E0,4.053138730E0
1.908982192E0,3.326676846E0,-1.302165031E0,2.167011261E0,4.178319089E0
1.913724015E0,3.384934902E0,-1.019829273E0,2.286989450E0,4.210481776E0
1.918465838E0,3.392580509E0,-8.518686295E-1,2.261998892E0,4.165563787E0
1.923207661E0,3.536066055E0,-7.669997215E-1,2.228645802E0,4.249578077E0
1.927949484E0,3.719553471E0,-7.698192596E-1,2.189544201E0,4.384267729E0
1.932691306E0,3.885720253E0,-8.315825462E-1,2.159372568E0,4.522525987E0
1.937433129E0,3.979803085E0,-9.356360435E-1,2.172084808E0,4.629492393E0
1.942174952E0,4.002296448E0,-1.044085979E0,2.192117691E0,4.681225519E0
1.946916723E0,3.982315063E0,-1.212243080E0,2.207921505E0,4.712036070E0
1.951658546E0,3.941680908E0,-1.394913197E0,2.188755512E0,4.719457797E0
1.956400369E0,3.935489178E0,-1.623355865E0,2.092186213E0,4.743479997E0
1.961142192E0,3.911107063E0,-1.888043880E0,1.983400702E0,4.774447246E0
1.965884015E0,3.878064156E0,-2.107777119E0,1.815205932E0,4.772533766E0
1.970625838E0,3.824213028E0,-2.292167664E0,1.590778351E0,4.733837095E0
1.975367661E0,3.696893692E0,-2.450825453E0,1.406195283E0,4.653058515E0
1.980109484E0,3.491232872E0,-2.633736610E0,1.206476212E0,4.536613313E0
1.984851254E0,3.252507210E0,-2.826242924E0,1.020299077E0,4.428031438E0
1.989593077E0,2.927865028E0,-3.061330080E0,8.115997314E-1,4.313099768E0
1.994334900E0,2.629233360E0,-3.278682232E0,5.805630684E-1,4.242602823E0
1.999076723E0,2.363219738E0,-3.425321579E0,3.607512712E-1,4.177053618E0
2.003818546E0,2.155630112E0,-3.594130993E0,2.068797350E-1,4.196107482E0
2.008560369E0,2.070672035E0,-3.667807102E0,6.104135513E-2,4.212388594E0
2.013302192E0,1.993203163E0,-3.689269543E0,-1.392371655E-1,4.195587634E0
2.018043963E0,2.054415226E0,-3.632186651E0,-3.103697300E-1,4.184463067E0
2.022785786E0,2.158299923E0,-3.572976351E0,-5.290148258E-1,4.207644857E0
2.027527609E0,2.328646183E0,-3.475776672E0,-6.495498419E-1,4.233855397E0
2.032269431E0,2.565429688E0,-3.316785336E0,-6.034792662E-1,4.236352401E0
2.037011254E0,2.742155075E0,-3.103349447E0,-4.111267328E-1,4.161636389E0
2.041753077E0,2.830530643E0,-2.880974054E0,-1.978809834E-1,4.043645893E0
2.046494900E0,2.861984730E0,-2.673582792E0,4.761910439E-2,3.916793219E0
2.051236723E0,2.896695137E0,-2.440772772E0,2.341383696E-1,3.795133096E0
2.055978494E0,2.923006535E0,-2.244949579E0,4.356417656E-1,3.711273307E0
2.060720317E0,2.981877327E0,-2.100658894E0,6.733907461E-1,3.709152906E0
2.065462140E0,3.066431522E0,-2.032074451E0,8.971825838E-1,3.786458166E0
2.070203963E0,3.086092472E0,-1.991514206E0,1.092721939E0,3.831988624E0
2.074945786E0,3.110549450E0,-2.003064156E0,1.231297374E0,3.899214936E0
2.079687609E0,3.073024750E0,-2.030835152E0,1.171933413E0,3.865384903E0
2.084429431E0,2.928262711E0,-2.077209473E0,9.606920481E-1,3.716510582E0
2.089171254E0,2.757671833E0,-2.087285757E0,7.106928825E-1,3.530807293E0
2.093913025E0,2.599469185E0,-2.094690561E0,4.775639772E-1,3.372393207E0
2.098654848E0,2.453513145E0,-2.118594885E0,2.642750740E-1,3.252385641E0
2.103396671E0,2.381590843E0,-2.173222542E0,-1.668167114E-2,3.224150964E0
2.108138494E0,2.318760395E0,-2.184416533E0,-3.666040897E-1,3.206668663E0
2.112880317E0,2.255125999E0,-2.190329790E0,-7.726616859E-1,3.237305043E0
2.117622140E0,2.168846607E0,-2.185869455E0,-1.138860226E0,3.283127091E0
2.122363911E0,2.131456852E0,-2.130215168E0,-1.496348977E0,3.364518574E0
2.127105734E0,2.090171814E0,-2.075715065E0,-1.869433641E0,3.488867063E0
2.131847556E0,2.087893009E0,-2.005315304E0,-2.232295275E0,3.655643429E0
2.136589379E0,2.129191399E0,-1.844699621E0,-2.575692654E0,3.817140992E0
2.141331202E0,2.168485165E0,-1.601019859E0,-2.742096901E0,3.845086204E0
2.146073025E0,2.181847572E0,-1.374592304E0,-2.729680538E0,3.755145626E0
2.150814848E0,2.135997772E0,-1.148660660E0,-2.632161617E0,3.579131539E0
2.155556619E0,2.131737709E0,-8.972554207E-1,-2.483406305E0,3.393623407E0
2.160298442E0,2.186267853E0,-6.210350990E-1,-2.357905626E0,3.274930635E0
2.165040265E0,2.307286263E0,-4.234824181E-1,-2.139075279E0,3.174673260E0
2.169782088E0,2.373376369E0,-3.504381180E-1,-1.884847403E0,3.050962471E0
2.174523911E0,2.413648129E0,-2.898530960E-1,-1.580877304E0,2.899807779E0
2.179265734E0,2.385571957E0,-1.993446350E-1,-1.263013244E0,2.706638930E0
2.184007556E0,2.354086876E0,-4.378986359E-2,-1.035872102E0,2.572289560E0
2.188749327E0,2.242811203E0,1.397800446E-2,-1.018320322E0,2.463203961E0
2.193491150E0,2.073270798E0,1.484966278E-2,-1.054316044E0,2.325995407E0
2.198232973E0,1.876441002E0,2.370405197E-2,-1.119806051E0,2.185305084E0
2.202974796E0,1.659385681E0,-1.423835754E-2,-1.174011707E0,2.032748646E0
2.207716619E0,1.429060936E0,-2.206611633E-2,-1.219344020E0,1.878696865E0
2.212458442E0,1.216470718E0,-5.461454391E-2,-1.193899393E0,1.705338535E0
2.217200265E0,1.069218636E0,-1.363229752E-2,-1.150547743E0,1.570724177E0
2.221942036E0,1.030172348E0,6.972646713E-2,-1.080039740E0,1.494189642E0
2.226683859E0,1.041851997E0,1.810488701E-1,-1.052214384E0,1.491773906E0
2.231425681E0,1.013373375E0,2.893805504E-1,-1.105781317E0,1.527553279E0
2.236167504E0,8.610677719E-1,3.473281860E-1,-1.157484531E0,1.483861522E0
2.240909327E0,7.619180679E-1,4.316396713E-1,-1.155118704E0,1.449527912E0
2.245651150E0,7.924022675E-1,5.850820541E-1,-1.185078144E0,1.540984286E0
2.250392921E0,8.808689117E-1,7.855262756E-1,-1.245029926E0,1.715541048E0
2.255134744E0,8.865947723E-1,9.988684654E-1,-1.210894704E0,1.802790749E0
2.259876567E0,7.620506287E-1,1.115052223E0,-1.125999689E0,1.758390719E0
2.264618390E0,5.576639175E-1,1.148612022E0,-9.976552725E-1,1.620374853E0
2.269360213E0,2.424278259E-1,1.097561359E0,-9.910462499E-1,1.498527563E0
2.274102036E0,2.795219421E-3,1.138955116E0,-1.143837810E0,1.614184470E0
2.278843859E0,-1.375875473E-1,1.176994324E0,-1.314210534E0,1.769574892E0
2.283585629E0,-2.769908905E-1,1.206866741E0,-1.513331532E0,1.955357668E0
2.288327452E0,-4.276337624E-1,1.204890251E0,-1.744983077E0,2.163237641E0
2.293069275E0,-6.183953285E-1,1.133088589E0,-1.972462893E0,2.357310415E0
2.297811098E0,-8.398990631E-1,1.058727741E0,-2.163830280E0,2.551175484E0
2.302552921E0,-1.008478165E0,1.000869274E0,-2.335534811E0,2.733768528E0
2.307294744E0,-1.080803871E0,1.188216209E0,-2.144117355E0,2.679036021E0
2.312036515E0,-1.056755066E0,1.256632805E0,-2.058934450E0,2.633451793E0
2.316778338E0,-1.048650742E0,1.256294727E0,-2.041758299E0,2.616624117E0
2.321520161E0,-1.089818478E0,1.342640400E0,-2.018984795E0,2.658324126E0
2.326261984E0,-1.113253593E0,1.446317673E0,-2.060455322E0,2.752570527E0
2.331003806E0,-1.145328999E0,1.462381840E0,-2.109185457E0,2.810516403E0
2.335745629E0,-1.226979256E0,1.327183723E0,-2.313597202E0,2.935920085E0
2.340487452E0,-1.361149788E0,1.206953049E0,-2.804268360E0,3.342661431E0
2.345229223E0,-1.435981750E0,8.945808411E-1,-3.125761986E0,3.554251885E0
2.349971046E0,-1.341754436E0,5.577740669E-1,-3.091752768E0,3.416189698E0
2.354712869E0,-1.262655258E0,4.687104225E-1,-2.800760031E0,3.107771631E0
2.359454692E0,-1.208140373E0,3.902659416E-1,-2.442094803E0,2.752405801E0
2.364196515E0,-1.166231155E0,3.320226669E-1,-2.245149612E0,2.551672185E0
2.368938338E0,-1.062726021E0,3.582897186E-1,-1.956374407E0,2.255029698E0
2.373680109E0,-9.071483612E-1,3.755397797E-1,-1.554901123E0,1.838930607E0
2.378421931E0,-7.639498711E-1,3.023934364E-1,-1.235099316E0,1.483418860E0
2.383163754E0,-5.588655472E-1,1.865711212E-1,-9.517703056E-1,1.119377594E0
2.387905577E0,-3.516817093E-1,2.333354950E-2,-6.814472675E-1,7.671993598E-1
2.392647400E0,-1.614379883E-1,-1.514520645E-1,-4.103232920E-1,4.662243622E-1
2.397389223E0,2.872180939E-2,-2.710065842E-1,-1.674549580E-1,3.198603976E-1
2.402131046E0,2.187681198E-1,-3.998503685E-1,3.718948364E-2,4.572995355E-1
2.406872817E0,3.321514130E-1,-5.114617348E-1,1.745148301E-1,6.343288526E-1
2.411614640E0,4.333610535E-1,-5.649428368E-1,2.422159910E-1,7.520843023E-1
2.416356463E0,4.960651398E-1,-6.224124432E-1,3.240484595E-1,8.593516605E-1
2.421098286E0,6.016368866E-1,-5.429689884E-1,3.956408501E-1,9.018392029E-1
2.425840109E0,5.923299789E-1,-4.893498421E-1,3.440866470E-1,8.418513483E-1
2.430581879E0,5.543699265E-1,-4.494872093E-1,2.312968969E-1,7.502419751E-1
2.435323702E0,5.498962402E-1,-4.256331921E-1,-3.598397970E-2,6.963076447E-1
2.440065525E0,6.480846405E-1,-4.153459072E-1,-4.234704375E-1,8.785517261E-1
2.444807348E0,7.267913818E-1,-4.090032578E-1,-8.892531395E-1,1.219131053E0
2.449549171E0,6.998615265E-1,-4.972133636E-1,-1.283634901E0,1.544262233E0
2.454290994E0,6.796092987E-1,-6.436963081E-1,-1.646167040E0,1.893694711E0
2.459032817E0,6.324234009E-1,-7.669343948E-1,-1.916038394E0,2.158552953E0
2.463774588E0,6.921977997E-1,-8.169102669E-1,-2.140666962E0,2.393519421E0
2.468516411E0,8.660926819E-1,-7.774722576E-1,-2.393955708E0,2.661879707E0
2.473258234E0,1.180609703E0,-5.994935036E-1,-2.687983036E0,2.996411943E0
2.478000056E0,1.798768044E0,-1.152524948E-1,-3.030303240E0,3.525845620E0
2.482741879E0,2.151695251E0,1.913127899E-1,-3.558579683E0,4.162917535E0
2.487483702E0,2.325595856E0,2.397503853E-1,-4.036716938E0,4.664864411E0
2.492225525E0,2.389683723E0,7.883882523E-2,-3.978978395E0,4.642097902E0
2.496967296E0,2.157258034E0,-2.828407288E-1,-3.642943621E0,4.243206255E0
2.501709119E0,1.979886055E0,-5.764031410E-1,-3.463474989E0,4.030861989E0
2.506450942E0,2.007870674E0,-7.488257885E-1,-3.475523710E0,4.083080916E0
2.511192765E0,1.922798157E0,-1.048196316E0,-3.232742310E0,3.904675545E0
2.515934588E0,1.655220985E0,-1.461316824E0,-2.789087772E0,3.557276201E0
2.520676411E0,1.248125076E0,-1.769432306E0,-2.282716274E0,3.146347165E0
2.525418181E0,7.156620026E-1,-2.069412708E0,-1.763304234E0,2.811384513E0
2.530160004E0,2.679033279E-1,-2.333735228E0,-1.262850642E0,2.666999072E0
2.534901827E0,-7.633018494E-2,-2.590579033E0,-9.658368826E-1,2.765821199E0
2.539643650E0,-2.573490143E-1,-2.777852058E0,-8.963645697E-1,2.930215012E0
2.544385473E0,-2.391824722E-1,-2.860512972E0,-7.537777424E-1,2.967814617E0
2.549127296E0,3.349533081E-1,-2.537868500E0,-6.421431303E-1,2.639188898E0
2.553869119E0,1.341025352E0,-1.749727488E0,-4.055669606E-1,2.241512845E0
2.558610890E0,1.485759735E0,-1.413130999E0,1.943963766E-2,2.050560682E0
2.563352713E0,1.210438728E0,-1.319159985E0,-5.083113909E-3,1.790354942E0
2.568094536E0,6.662597656E-1,-1.392708421E0,-4.166043997E-1,1.599092882E0
2.572836359E0,3.363561630E-1,-1.403731704E0,-8.575886488E-1,1.679004602E0
2.577578181E0,2.706537247E-1,-1.231062651E0,-1.173351288E0,1.722069085E0
2.582320004E0,3.326187134E-1,-1.031221390E0,-1.076872468E0,1.527647563E0
2.587061775E0,1.491508484E-1,-1.016928077E0,-7.395426035E-1,1.266219551E0
2.591803598E0,-1.074752808E-1,-1.175160408E0,-3.706426919E-1,1.236902957E0
2.596545421E0,-3.058214188E-1,-1.387891054E0,-3.570870459E-1,1.465359845E0
2.601287244E0,-4.770469666E-1,-1.399107814E0,-6.024589539E-1,1.596256018E0
2.606029067E0,-5.134744644E-1,-1.169122219E0,-8.057959080E-1,1.509903916E0
2.610770890E0,-3.481492996E-1,-7.380903959E-1,-6.026656628E-1,1.014490645E0
2.615512713E0,-4.663305283E-1,-4.207236767E-1,6.381091475E-2,6.313037356E-1
2.620254536E0,-7.192840576E-1,-2.725353241E-1,4.709927738E-1,9.019308462E-1
2.624996306E0,-8.367300034E-1,-2.171421051E-1,7.468287945E-1,1.142375175E0
2.629738129E0,-9.742784500E-1,-2.496702671E-1,6.138392687E-1,1.178283662E0
2.634479952E0,-9.884681702E-1,-1.049520969E-1,4.159047306E-1,1.077525411E0
2.639221775E0,-9.728832245E-1,-8.159208298E-2,-4.567980766E-3,9.763093275E-1
2.643963598E0,-1.085229874E0,4.488146305E-1,-9.100931883E-2,1.177896917E0
2.648705421E0,-1.308658600E0,3.983609676E-1,-2.122398317E-1,1.384313742E0
2.653447244E0,-1.181691170E0,6.159920692E-1,5.402973294E-2,1.333701414E0
2.658189015E0,-1.079953194E0,7.898066044E-1,4.722451568E-1,1.418840675E0
2.662930838E0,-5.323934555E-1,1.107887030E0,6.728119850E-1,1.401261014E0
2.667672661E0,-2.041816711E-1,1.405292273E0,1.098629117E0,1.795417072E0
2.672414484E0,-3.198127747E-1,1.018922329E0,1.356304169E0,1.726280372E0
2.677156306E0,6.787776947E-2,1.381352901E0,1.619973779E0,2.130037153E0
2.681898129E0,2.721986771E-1,1.821729422E0,1.920976996E0,2.661379873E0
2.686639952E0,2.552986145E-1,2.260779858E0,2.257597923E0,3.205160110E0
2.691381775E0,2.518329620E-1,2.731673479E0,2.450679779E0,3.678490345E0
2.696123546E0,3.859157562E-1,3.925597668E0,2.859320164E0,4.871853838E0
2.700865369E0,-4.304847717E-1,3.723406076E0,3.125533104E0,4.880371618E0
2.705607192E0,-1.108466148E0,3.524108171E0,2.557250261E0,4.493057367E0
2.710349015E0,-1.681884766E0,3.189845800E0,1.456126690E0,3.888978983E0
2.715090838E0,-1.723126888E0,2.823710203E0,2.501857281E-1,3.317393327E0
2.719832661E0,-1.632020950E0,2.389206171E0,-1.022738695E0,3.068842281E0
2.724574431E0,-1.561609268E0,2.067602396E0,-2.195422411E0,3.396098164E0
2.729316254E0,-1.528473377E0,1.717356682E0,-3.209187269E0,3.947711713E0
2.734058077E0,-1.250393867E0,1.469414473E0,-4.191585541E0,4.614331269E0
2.738799900E0,-9.905452728E-1,1.251352072E0,-4.846864700E0,5.102857961E0
2.743541723E0,-8.443174362E-1,1.009896994E0,-5.168944359E0,5.333924414E0
2.748283546E0,-4.885931015E-1,8.133802414E-1,-5.246762276E0,5.331868811E0
2.753025369E0,6.920242310E-2,7.521269321E-1,-4.912495136E0,4.970220555E0
2.757767192E0,5.252590179E-1,6.849257946E-1,-4.050112724E0,4.141066706E0
2.762509015E0,5.475158691E-1,5.240495205E-1,-3.073802948E0,3.165859455E0
2.767250786E0,-1.360778809E-1,4.317054749E-1,-2.206098318E0,2.252056082E0
2.771992609E0,-8.099308014E-1,5.454981327E-1,-1.477865100E0,1.771338864E0
2.776734431E0,-9.218797684E-1,8.748831749E-1,-9.962282777E-1,1.614854067E0
2.781476254E0,-4.341020584E-1,1.267729521E0,-3.516581059E-1,1.385368600E0
2.786218077E0,4.142189026E-1,1.557032347E0,-2.106852084E-2,1.611325824E0
2.790959900E0,1.016069412E0,1.672320604E0,4.443956167E-2,1.957301236E0
2.795701723E0,1.276916504E0,1.572166204E0,1.293403655E-1,2.029519959E0
2.800443546E0,1.087805748E0,1.380940914E0,5.093389153E-1,1.830230937E0
2.805185317E0,7.984676361E-1,1.185590506E0,1.168311477E0,1.846111351E0
2.809927140E0,5.880327225E-1,1.064124823E0,2.221114874E0,2.532093088E0
2.814668963E0,7.431707382E-1,1.052981377E0,2.203460217E0,2.552706300E0
2.819410786E0,9.714689255E-1,6.247386932E-1,9.794076681E-1,1.514361149E0
2.824152609E0,1.011161804E0,-1.003074646E-1,-7.161952853E-1,1.243159470E0
2.828894431E0,7.966470718E-1,-9.014592171E-1,-1.678792119E0,2.065337323E0
2.833636254E0,8.266496658E-1,-1.695216417E0,-2.225202084E0,2.916956065E0
2.838378077E0,9.750061035E-1,-2.500854015E0,-2.229027271E0,3.489050055E0
2.843119848E0,6.348419189E-1,-3.411019802E0,-1.731437802E0,3.877622624E0
2.847861671E0,-1.304817200E-2,-4.182016373E0,-4.943929017E-1,4.211158456E0
2.852603494E0,-6.127252579E-1,-4.933235168E0,1.252205491E0,5.126427612E0
2.857345317E0,-9.271583557E-1,-5.391361237E0,3.302232504E0,6.389924734E0
2.862087140E0,-9.940795898E-1,-5.544624329E0,5.373303890E0,7.784821634E0
2.866828963E0,-5.423512459E-1,-5.080621719E0,7.604134083E0,9.161316340E0
2.871570786E0,1.491928101E-1,-4.127307892E0,9.637469292E0,1.048512009E1
2.876312609E0,6.129407883E-1,-3.019669056E0,1.081953144E1,1.124972703E1
2.881054379E0,8.811063766E-1,-1.809351683E0,1.113674450E1,1.131711889E1
2.885796202E0,1.215188980E0,-6.934194565E-1,1.130344009E1,1.138970029E1
2.890538025E0,1.727941513E0,1.818661690E-1,1.109581852E1,1.123103049E1
2.895279848E0,2.130344391E0,8.690066338E-1,1.061303616E1,1.085956151E1
2.900021671E0,1.117516041E0,1.540781975E0,9.871734619E0,1.005355637E1
2.904763494E0,-4.294219017E-1,2.389752865E0,8.522725105E0,8.861837572E0
2.909505317E0,-2.059437752E0,3.432162285E0,6.826486111E0,7.913402203E0
2.914247140E0,-3.183039665E0,4.260213375E0,4.850778580E0,7.198000579E0
2.918988963E0,-3.988320589E0,4.779497147E0,2.450071096E0,6.689778955E0
2.923730786E0,-4.605935097E0,4.695168495E0,-4.492308199E-1,6.592499802E0
2.928472609E0,-4.293166637E0,4.404905319E0,-3.530010939E0,7.091928361E0
2.933214379E0,-3.787042856E0,3.817006588E0,-5.704734802E0,7.839338751E0
2.937956202E0,-3.653689146E0,3.327623844E0,-7.412076950E0,8.908502093E0
2.942698025E0,-4.581043243E0,2.614203453E0,-6.625178814E0,8.468353512E0
2.947439848E0,-3.737295151E0,2.563829899E0,-7.352808475E0,8.637383358E0
2.952181671E0,-2.570632935E0,2.773155212E0,-7.840774536E0,8.704957716E0
2.956923494E0,-1.642980099E0,2.916545868E0,-7.247032642E0,7.982800607E0
2.961665317E0,-1.717500210E0,2.677510262E0,-5.887694359E0,6.692070908E0
2.966407140E0,-1.940728664E0,2.364161015E0,-4.363940716E0,5.329133478E0
2.971148963E0,-1.325751781E0,2.395267010E0,-3.349754572E0,4.326173543E0
2.975890786E0,1.410479546E-1,2.394121647E0,-2.616149664E0,3.549077634E0
2.980632556E0,1.974017620E0,2.154038906E0,-2.002945185E0,3.542374710E0
2.985374379E0,3.133213043E0,1.636629105E0,-1.350304604E0,3.784032416E0
2.990116202E0,3.390028477E0,9.691872597E-1,-3.980914056E-1,3.548252215E0
2.994858025E0,3.481812954E0,1.593942642E-1,1.048721313E0,3.639813782E0
2.999599848E0,3.731588840E0,-7.208833694E-1,2.812791824E0,4.728237087E0
3.004341671E0,4.132726669E0,-1.595755577E0,3.730563402E0,5.791629208E0
3.009083494E0,4.039179325E0,-2.400170326E0,4.029964447E0,6.190024286E0
3.013825317E0,3.001098633E0,-3.030256271E0,4.267850876E0,6.033539357E0
3.018567140E0,1.880490780E0,-2.979583740E0,4.790235519E0,5.946471321E0
3.023308963E0,9.411606789E-1,-2.343109608E0,5.677012444E0,6.213245234E0
3.028050786E0,-4.212284088E-2,-1.862574100E0,6.005444050E0,6.287790936E0
3.032792609E0,-1.151565552E0,-1.515444756E0,5.900587559E0,6.199968513E0
3.037534379E0,-2.045936584E0,-1.186261654E0,4.735306740E0,5.293033453E0
3.042276202E0,-2.460561752E0,-8.558316231E-1,2.855386257E0,3.865235126E0
3.047018025E0,-2.108838558E0,-3.622608185E-1,1.466824532E0,2.594225736E0
3.051759848E0,-1.337280750E0,3.336558342E-1,1.058409691E0,1.737779357E0
3.056501671E0,-2.214808464E-1,9.910912514E-1,9.526016712E-1,1.392395625E0
3.061243494E0,8.833250999E-1,1.584776402E0,1.126124859E0,2.135400823E0
3.065985317E0,1.679604530E0,1.977327824E0,1.123489380E0,2.827211539E0
3.070727140E0,2.253009796E0,1.450630188E0,8.883351684E-1,2.823033910E0
3.075468963E0,2.061791897E0,6.560707092E-2,5.981400609E-1,2.147803912E0
3.080210786E0,1.290327549E0,-1.714066029E0,6.970885396E-2,2.146584929E0
3.084952609E0,-2.565374374E-1,-2.979248047E0,-2.758604884E-1,3.002970095E0
3.089694431E0,-1.271697998E0,-3.585507154E0,-4.851408601E-1,3.835158277E0
3.094436254E0,-1.352017403E0,-3.686735868E0,-5.184211731E-1,3.960900521E0
3.099178025E0,-1.141595840E0,-3.628263712E0,-7.004542947E-1,3.867579973E0
3.103919848E0,-9.298005104E-1,-3.444151878E0,-8.932306767E-1,3.677576946E0
3.108661671E0,-7.114272118E-1,-3.264081955E0,-1.038662553E0,3.498453885E0
3.113403494E0,-5.769619942E-1,-3.093207359E0,-1.195486784E0,3.366007362E0
3.118145317E0,-3.703217506E-1,-2.910597563E0,-1.265003920E0,3.195144956E0
3.122887140E0,-7.639360428E-2,-2.640704632E0,-1.285143137E0,2.937813782E0
3.127628963E0,5.644264221E-1,-2.237427711E0,-8.669127226E-1,2.464994446E0
3.132370786E0,1.881976128E0,-1.589072227E0,1.857829094E-1,2.470121450E0
3.137112609E0,3.957583904E0,-6.780900955E-1,1.453417540E0,4.270210660E0
3.141854431E0,4.429206848E0,-5.863924026E-1,1.078292847E0,4.596133681E0
3.146596254E0,3.855449677E0,-9.079651833E-1,1.862704754E-1,3.965298182E0
3.151338077E0,3.777405262E0,-1.010935783E0,6.909382343E-2,3.910953289E0
3.156079900E0,3.941593170E0,-1.036991596E0,4.551895857E-1,4.101061551E0
3.160821723E0,3.778984070E0,-1.182139397E0,4.451704025E-1,3.984513878E0
3.165563546E0,3.261086464E0,-1.541085243E0,3.604253531E-1,3.624849664E0
3.170305369E0,2.567136765E0,-2.031211376E0,3.283110857E-1,3.289954254E0
3.175047192E0,1.854410172E0,-2.574588299E0,1.219103336E-1,3.175248671E0
3.179789015E0,1.208117485E0,-3.023751736E0,-2.283369303E-1,3.264163012E0
3.184530786E0,5.288562775E-1,-3.240365744E0,-8.558082581E-1,3.392943691E0
3.189272661E0,-3.238773346E-1,-3.504774332E0,-1.183568716E0,3.713377782E0
3.194014431E0,-1.683115959E0,-3.659223080E0,-1.127004504E0,4.182455264E0
3.198756254E0,-3.891060591E0,-3.636370659E0,-4.281733036E-1,5.342927706E0
3.203498077E0,-6.880108833E0,-3.239455223E0,9.329016209E-1,7.661610349E0
3.208239900E0,-9.474708557E0,-2.599845886E0,2.333152056E0,1.009816317E1
3.212981723E0,-1.014925003E1,-1.824688435E0,3.654628277E0,1.094043289E1
3.217723546E0,-8.462488174E0,-1.229274750E0,4.196038723E0,9.525311726E0
3.222465369E0,-5.741327286E0,-9.333443642E-1,3.587690115E0,6.834141575E0
3.227207192E0,-3.282993078E0,-9.724259377E-1,2.576886654E0,4.285323860E0
3.231949015E0,-1.590685844E0,-1.046636581E0,1.749678373E0,2.585943541E0
3.236690838E0,-5.514235497E-1,-1.116446972E0,1.099950790E0,1.661449221E0
3.241432661E0,9.751319885E-2,-1.165895939E0,6.963632107E-1,1.361522635E0
3.246174484E0,4.672522545E-1,-1.142766476E0,5.264294147E-1,1.342150445E0
3.250916306E0,6.372585297E-1,-9.803886414E-1,6.499335766E-1,1.337786969E0
3.255658129E0,8.492827415E-1,-7.939739227E-1,9.839019775E-1,1.523068897E0
3.260399952E0,1.066975594E0,-3.065872192E-1,1.470695019E0,1.842654737E0
3.265141775E0,1.387740135E0,5.381793976E-1,2.565199375E0,2.965755820E0
3.269883598E0,2.067685604E0,1.024055004E0,3.470066786E0,4.167178411E0
3.274625421E0,2.396784306E0,8.308916092E-1,2.956659555E0,3.895740186E0
3.279367244E0,2.078320503E0,3.713755608E-1,2.012145042E0,2.916515660E0
3.284109067E0,1.366960049E0,-1.707077026E-3,1.068927765E0,1.735277861E0
3.288850890E0,5.572829247E-1,-2.800440788E-1,-7.976603508E-2,6.287698820E-1
3.293592713E0,-7.580566406E-2,-1.424393654E-1,-8.768248558E-1,8.915476988E-1
3.298334536E0,-4.720392227E-1,-4.109811783E-2,-1.195893288E0,1.286340094E0
3.303076359E0,-4.455895424E-1,1.413488388E-2,-1.385145664E0,1.455121420E0
3.307818181E0,-1.805644035E-1,7.509708405E-2,-1.240111828E0,1.255436347E0
3.312560004E0,1.634068489E-1,2.339286804E-1,-6.015063524E-1,6.657584530E-1
3.317301775E0,2.879533768E-1,7.048482895E-1,2.429563999E-1,7.992221660E-1
3.322043650E0,6.973123550E-2,1.656722069E0,1.201201677E0,2.047553645E0
3.326785421E0,-1.755166054E-1,2.970933914E0,2.423539877E0,3.838072425E0
3.331527296E0,2.177619934E-2,3.883290291E0,3.087526321E0,4.961172893E0
3.336269119E0,-4.182052612E-2,4.602172375E0,3.207579851E0,5.609840285E0
3.341010890E0,-3.099217415E-1,5.288706779E0,3.058767319E0,6.117395557E0
3.345752713E0,-7.128682137E-1,5.662030220E0,2.614613056E0,6.277178406E0
3.350494536E0,-1.199350834E0,5.406608105E0,2.195784569E0,5.957459483E0
3.355236359E0,-1.634318829E0,4.735500336E0,1.564806938E0,5.248293267E0
3.359978181E0,-1.730494499E0,4.720624447E0,2.045390129E0,5.427939495E0
3.364720004E0,-1.839708805E0,4.565160751E0,2.609841347E0,5.571040570E0
3.369461827E0,-1.825620413E0,4.326638222E0,3.155262947E0,5.657594229E0
3.374203650E0,-1.676369190E0,4.009662151E0,3.505605459E0,5.583625513E0
3.378945473E0,-1.344088078E0,3.640087128E0,3.565006733E0,5.269352907E0
3.383687296E0,-6.898312569E-1,3.159759998E0,2.830321312E0,4.297751638E0
3.388429119E0,-2.301669121E-1,2.398467064E0,1.278788567E0,2.727805210E0
3.393170942E0,-2.806000710E-1,1.406684875E0,1.259985566E-1,1.439921656E0
3.397912765E0,-4.724097252E-1,5.529079437E-1,-6.035465598E-1,9.450643325E-1
3.402654588E0,-6.908082962E-1,-1.199626923E-1,-7.785785794E-1,1.047755579E0
3.407396411E0,-8.595299721E-1,-6.455116272E-1,-7.657512426E-1,1.319792408E0
3.412138234E0,-9.381561279E-1,-1.019121170E0,-7.617478371E-1,1.580824040E0
3.416880056E0,-9.867372513E-1,-1.298355103E0,-5.948088169E-1,1.735849620E0
3.421621879E0,-9.122729301E-1,-1.516793728E0,-3.996120095E-1,1.814550873E0
3.426363702E0,-8.227729797E-1,-1.586048603E0,-2.702733278E-1,1.807084176E0
3.431105525E0,-6.634149551E-1,-1.513605595E0,-2.595365047E-2,1.652814234E0
3.435847348E0,-4.247298241E-1,-1.350162506E0,2.217623591E-1,1.432659332E0
3.440589171E0,-2.649140358E-1,-1.304179192E0,-1.760437489E-1,1.342406128E0
3.445330994E0,-1.294102669E-1,-1.316075325E0,-8.400306702E-1,1.566669335E0
3.450072817E0,2.441215515E-2,-1.307157040E0,-1.377416372E0,1.899086976E0
3.454814640E0,1.724033356E-1,-1.287144661E0,-1.352886677E0,1.875304415E0
3.459556463E0,2.211298943E-1,-1.291789055E0,-9.304130077E-1,1.607260327E0
3.464298286E0,1.634006500E-1,-1.143880367E0,-6.508835554E-1,1.326201896E0
3.469040161E0,3.827095032E-3,-8.240566254E-1,-3.252236843E-1,8.859200942E-1
3.473781931E0,-2.483019829E-1,-4.491958618E-1,-8.293342590E-2,5.199122523E-1
3.478523754E0,-4.472646713E-1,-8.831501007E-2,1.114261150E-1,4.693197272E-1
3.483265629E0,-4.423708916E-1,1.463804245E-1,9.485638142E-2,4.755175785E-1
3.488007452E0,-3.053622246E-1,3.865699768E-1,4.842609167E-2,4.950025470E-1
3.492749275E0,-1.869115829E-1,5.318403244E-1,1.737407446E-1,5.898948354E-1
3.497491098E0,3.936767578E-3,6.277580261E-1,4.877976775E-1,7.950108249E-1
3.502232921E0,1.259407997E-1,6.290454865E-1,9.738051891E-1,1.166128576E0
3.506974744E0,2.580389977E-1,5.597400665E-1,1.607261658E0,1.721389875E0
3.511716567E0,2.420110703E-1,3.747415543E-1,2.251224518E0,2.294997259E0
3.516458390E0,1.710896492E-1,5.756473541E-2,2.809521675E0,2.815314798E0
3.521200213E0,4.140167236E-1,-2.436809540E-1,2.794561863E0,2.835553960E0
3.525942036E0,9.523119926E-1,-5.272321701E-1,2.095697403E0,2.361529059E0
3.530683859E0,1.459080219E0,-6.933083534E-1,1.498929262E0,2.203719695E0
3.535425681E0,1.437091827E0,-7.324991226E-1,1.250591159E0,2.041020855E0
3.540167504E0,9.868707657E-1,-5.561094284E-1,1.244978547E0,1.683194340E0
3.544909327E0,5.051045418E-1,-2.763051987E-1,1.431243420E0,1.542703111E0
3.549651150E0,7.742977142E-2,2.581548691E-2,1.601087689E0,1.603166741E0
3.554392973E0,-2.844629288E-1,1.878571510E-1,1.394167781E0,1.435239795E0
3.559134796E0,-5.422363281E-1,3.080072403E-1,1.034124136E0,1.207601517E0
3.563876619E0,-6.884670258E-1,3.526659012E-1,6.438506842E-1,1.006431213E0
3.568618442E0,-6.296257973E-1,4.340438843E-1,4.173455834E-1,8.712061031E-1
3.573360265E0,-4.538717270E-1,4.776029587E-1,2.135962248E-1,6.926236192E-1
3.578102088E0,-3.019495010E-1,5.165796280E-1,1.405281425E-1,6.146349909E-1
3.582843911E0,-6.310558319E-2,6.413636208E-1,1.670080423E-2,6.446770707E-1
3.587585734E0,3.973436356E-1,7.269163132E-1,2.792775631E-3,8.284304984E-1
3.592327556E0,7.928757668E-1,7.728095055E-1,1.727547050E-1,1.120593906E0
3.597069379E0,7.862796783E-1,6.787786484E-1,5.952506065E-1,1.197204857E0
3.601811202E0,5.547313690E-1,5.001587868E-1,1.140259981E0,1.363113542E0
3.606553025E0,4.854640961E-1,2.086119652E-1,1.747305155E0,1.825450532E0
3.611294848E0,5.037388802E-1,-7.116556168E-2,2.353368998E0,2.407729851E0
3.616036723E0,3.721456528E-1,-3.244929314E-1,2.897918701E0,2.939680399E0
3.620778546E0,2.172193527E-1,-4.579238892E-1,3.014803886E0,3.057109911E0
3.625520369E0,4.328536987E-2,-4.212999344E-1,2.174365044E0,2.215226986E0
3.630262192E0,-6.891727448E-2,-3.799118996E-1,1.196843505E0,1.257583801E0
3.635004015E0,-3.115272522E-1,-2.044506073E-1,4.794955850E-1,6.072604842E-1
3.639745838E0,-5.506887436E-1,1.050438881E-1,9.154748917E-2,5.680433553E-1
3.644487661E0,-4.848780632E-1,5.413308144E-1,8.261859417E-2,7.314175407E-1
3.649229484E0,-5.684375763E-1,1.075952053E0,2.054589987E-1,1.234101900E0
3.653971306E0,-4.034266472E-1,1.799891949E0,8.407822251E-1,2.027135624E0
3.658713129E0,-1.999044418E-2,2.645788193E0,1.597907186E0,3.090938717E0
3.663454952E0,5.352487564E-1,3.462181568E0,1.993284464E0,4.030679272E0
3.668196775E0,1.306684017E0,4.059094906E0,1.656081200E0,4.574525059E0
3.672938598E0,1.730786800E0,4.466932297E0,1.163580179E0,4.929809928E0
3.677680421E0,1.703111649E0,4.840917587E0,8.006657362E-1,5.193855793E0
3.682422244E0,1.600138187E0,5.140022278E0,1.069086790E-1,5.384394181E0
3.687164119E0,1.558738708E0,5.270712852E0,-8.561211824E-1,5.562645397E0
3.691905942E0,1.624810219E0,5.311534882E0,-1.982148528E0,5.897569316E0
3.696647765E0,1.860764980E0,5.316852093E0,-2.895917416E0,6.333853501E0
3.701389588E0,1.974340916E0,5.183079243E0,-4.128591537E0,6.914304055E0
3.706131411E0,1.993668079E0,4.845278263E0,-5.069510937E0,7.290498954E0
3.710873234E0,2.025444508E0,4.293868065E0,-5.837311745E0,7.524223336E0
3.715615056E0,2.065693855E0,3.603332043E0,-6.268157005E0,7.519367338E0
3.720356879E0,2.172735691E0,2.776894569E0,-6.021327019E0,6.977700402E0
3.725098702E0,1.953366756E0,1.921573162E0,-5.041282177E0,5.737822853E0
3.729840525E0,1.418984890E0,1.168752193E0,-3.705738783E0,4.136665292E0
3.734582348E0,7.817339897E-1,6.682815552E-1,-2.530235529E0,2.731263462E0
3.739324171E0,3.999462128E-1,5.736045837E-1,-1.871500254E0,1.997871966E0
3.744065994E0,3.858208656E-1,6.879539490E-1,-1.855747223E0,2.016416656E0
3.748807869E0,8.665447235E-1,9.216651917E-1,-1.978726625E0,2.348558184E0
3.753549692E0,1.263454914E0,1.056284904E0,-1.708270073E0,2.372813259E0
3.758291515E0,1.155852318E0,9.052867889E-1,-1.291750669E0,1.955545587E0
3.763033338E0,7.788634300E-1,6.413040161E-1,-1.218842745E0,1.582237884E0
3.767775161E0,1.424789429E-1,3.603467941E-1,-1.602991343E0,1.649160788E0
3.772516984E0,-4.372735023E-1,5.761528015E-2,-2.116137266E0,2.161611567E0
3.777258806E0,-8.193411827E-1,-1.355552673E-1,-2.395501614E0,2.535374368E0
3.782000629E0,-8.530323505E-1,-3.679146767E-1,-2.604915619E0,2.765612189E0
3.786742452E0,-5.021457672E-1,-4.750137329E-1,-2.704710245E0,2.791638574E0
3.791484275E0,4.010105133E-2,-5.364446640E-1,-2.769655228E0,2.821412953E0
3.796226098E0,4.085278511E-1,-6.172957420E-1,-2.900862932E0,2.993819432E0
3.800967973E0,7.041897774E-1,-7.152633667E-1,-2.756849289E0,2.933888704E0
3.805709796E0,3.066568375E-1,-9.106664658E-1,-1.718445420E0,1.968859185E0
3.810451619E0,-5.937404633E-1,-1.194826126E0,-7.398501635E-1,1.525619702E0
3.815193442E0,-1.418457508E0,-1.521379948E0,-1.615548134E-1,2.086316995E0
3.819935265E0,-1.456492662E0,-1.885597706E0,-1.588738084E0,2.863728039E0
3.824677088E0,-1.207241058E0,-2.137241840E0,-2.617837429E0,3.588635738E0
3.829418911E0,-1.619155407E-1,-2.277410507E0,-3.531929970E0,4.205632482E0
3.834160734E0,5.387158394E-1,-2.562381268E0,-2.866444111E0,3.882333623E0
3.838902556E0,1.205777168E0,-2.735986710E0,-7.898408175E-1,3.092469947E0
3.843644431E0,1.462842226E0,-2.833512306E0,2.119114876E0,3.828752698E0
3.848386254E0,1.387481689E-1,-3.044836998E0,3.772896528E0,4.850260984E0
3.853128077E0,-1.118581295E0,-3.203762054E0,3.433368206E0,4.827352551E0
3.857869900E0,-2.262754679E0,-3.684958935E0,3.201344967E0,5.380296524E0
3.862611723E0,-3.106238842E0,-4.425261021E0,2.898498535E0,6.134569961E0
3.867353546E0,-3.836886883E0,-5.014967918E0,2.637359142E0,6.843045186E0
3.872095369E0,-5.330070019E0,-5.601635933E0,2.731684685E0,8.200614169E0
3.876837192E0,-6.506502628E0,-6.077052116E0,3.171555758E0,9.451132461E0
3.881579067E0,-7.964981079E0,-6.517222404E0,4.629117966E0,1.128467299E1
3.886320890E0,-8.825096130E0,-6.733002663E0,7.279030800E0,1.327403239E1
3.891062713E0,-8.791019440E0,-6.459732533E0,1.039991379E1,1.507210582E1
3.895804536E0,-7.801863670E0,-4.759424686E0,1.576491547E1,1.822234232E1
3.900546359E0,-7.662894249E0,-3.736433983E0,1.536930275E1,1.757544748E1
3.905288181E0,-5.680211544E0,-3.029992104E0,1.447763252E1,1.584447850E1
3.910030004E0,-4.307142258E0,-2.683553696E0,1.261422348E1,1.359674847E1
3.914771827E0,-3.086947441E0,-2.828734398E0,1.008376408E1,1.091848345E1
3.919513702E0,-2.676704407E0,-3.591778755E0,8.366602898E0,9.490293207E0
3.924255525E0,-2.676694632E0,-4.457711220E0,7.887923717E0,9.447498295E0
3.928997348E0,-2.878911257E0,-5.258969307E0,7.741294861E0,9.791452105E0
3.933739171E0,-2.584114790E0,-5.529743671E0,6.430999756E0,8.866423866E0
3.938480994E0,-1.278299689E0,-5.106626034E0,4.619381428E0,7.003596527E0
3.943222817E0,2.348129749E-1,-4.579676151E0,3.514304638E0,5.777448215E0
3.947964640E0,1.027151346E0,-4.282020092E0,2.472388029E0,5.050092922E0
3.952706463E0,1.790899277E0,-3.776008129E0,1.541420698E0,4.454383838E0
3.957448338E0,3.066358566E0,-2.545014381E0,-1.990332365E0,4.454332271E0
3.962190161E0,3.212331057E0,-2.100330830E0,-4.829936028E0,6.169176804E0
3.966931984E0,2.843843699E0,-1.708847046E0,-8.143316269E0,8.793247697E0
3.971673806E0,2.659863949E0,-1.067688942E0,-1.076263618E1,1.113773646E1
3.976415629E0,1.678977251E0,9.341497421E-1,-1.471350956E1,1.483842862E1
3.981157452E0,1.920753241E0,5.129372597E0,-1.831814003E1,1.911946679E1
3.985899275E0,1.745043755E0,4.091623306E0,-1.049192429E1,1.139592182E1
3.990641150E0,5.546901226E-1,2.747591972E0,-8.471804619E0,8.923475572E0
3.995382973E0,-7.012450695E-2,2.348706245E0,-7.120090485E0,7.497801477E0
4.000124796E0,7.725143433E-2,2.353342056E0,-6.626667976E0,7.032561062E0
4.004866619E0,7.828539610E-1,2.615334511E0,-6.080461502E0,6.665196697E0
4.009608442E0,9.716787338E-1,2.632616997E0,-5.360228062E0,6.050361699E0
4.014350265E0,5.177290440E-1,2.668908119E0,-5.353907585E0,6.004618251E0
4.019092140E0,-1.392944217E0,1.629906654E0,-4.409779072E0,4.903370347E0
4.023833963E0,-1.549201727E0,5.287456512E-1,-2.822457314E0,3.262799908E0
4.028575786E0,-8.579350710E-1,-4.119892120E-1,-5.872359872E-1,1.118317397E0
4.033317609E0,-7.672948837E-1,-1.670225143E0,2.519250870E0,3.118496178E0
4.038059431E0,-4.948400259E-1,-2.047498226E0,4.125323772E0,4.631998690E0
4.042801254E0,-9.314293861E-1,-1.200615883E0,4.124068260E0,4.395108442E0
4.047543077E0,-8.949708939E-1,3.259754181E-1,4.173442841E0,4.280754375E0
4.052284952E0,1.168792129E0,1.552917480E0,2.809221506E0,3.416043503E0
4.057026775E0,2.311272860E0,1.875383377E0,2.204600811E0,3.703958663E0
4.061768598E0,2.893168926E0,2.200659752E0,1.028930783E0,3.777833815E0
4.066510421E0,3.075600624E0,2.313664436E0,1.061121821E-1,3.850145727E0
4.071252244E0,2.860780954E0,2.081068993E0,-2.965968847E-1,3.550054300E0
4.075994067E0,2.259680271E0,1.616096497E0,-1.358964443E-1,2.781436797E0
4.080735942E0,1.330185652E0,1.081889153E0,-6.608719826E-1,1.837560825E0
4.085477765E0,-6.665494293E-2,6.531457901E-1,-1.678131700E0,1.801990096E0
4.090219588E0,-1.387305021E0,2.914171219E-1,-2.702529430E0,3.051754329E0
4.094961411E0,-2.154147148E0,-1.756381989E-1,-3.275538683E0,3.924328271E0
4.099703234E0,-2.497010469E0,-5.926113129E-1,-3.568726778E0,4.395686553E0
4.104445056E0,-2.914248228E0,-9.333982468E-1,-3.566717386E0,4.699526352E0
4.109186931E0,-3.064454556E0,-1.042725563E0,-2.745572805E0,4.244564566E0
4.113928754E0,-2.885593891E0,-9.686527252E-1,-1.716535687E0,3.494486368E0
4.118670577E0,-2.628563643E0,-9.600200653E-1,-8.966784477E-1,2.938540043E0
4.123412400E0,-2.261949062E0,-7.847967148E-1,-4.905581474E-1,2.443965372E0
4.128154223E0,-1.761255026E0,-6.081228256E-1,-7.838243246E-2,1.864933362E0
4.132896046E0,-1.372783303E0,-2.841625214E-1,2.948490381E-1,1.432556558E0
4.137637921E0,-1.249753475E0,1.891937256E-1,4.407380819E-1,1.338629176E0
4.142379744E0,-1.193388820E0,3.574123383E-1,1.387842536E0,1.864947012E0
4.147121567E0,-1.644517541E0,2.564802170E-1,2.194797039E0,2.754515218E0
4.151863390E0,-2.120696068E0,3.263101578E-1,2.323688507E0,3.162808627E0
4.156605213E0,-2.055336475E0,5.784215927E-1,2.564844131E0,3.337275084E0
4.161347088E0,-1.807569265E0,1.019598961E0,3.227818489E0,3.837408095E0
4.166088911E0,-1.705320358E0,1.493947983E0,3.878356457E0,4.492398792E0
4.170830734E0,-1.640978336E0,1.915098190E0,4.556015015E0,5.207464238E0
4.175572556E0,-1.634001493E0,2.280431747E0,5.101749897E0,5.822214514E0
4.180314379E0,-1.802103519E0,2.515551567E0,5.499853611E0,6.310623307E0
4.185056202E0,-2.002293348E0,2.758973122E0,5.530303478E0,6.496565854E0
4.189798077E0,-2.184872150E0,2.771314621E0,5.250133991E0,6.325959055E0
4.194539900E0,-2.321607113E0,2.803725243E0,4.614933968E0,5.877784476E0
4.199281723E0,-2.403215647E0,2.741274834E0,3.807296753E0,5.271199268E0
4.204023546E0,-2.353117466E0,2.646224976E0,2.839608431E0,4.539057663E0
4.208765369E0,-2.192516088E0,2.568898201E0,1.767053962E0,3.811672136E0
4.213507244E0,-2.026196718E0,2.387404442E0,5.874656439E-1,3.185951819E0
4.218249067E0,-1.884946108E0,1.893832207E0,-6.390848756E-1,2.747371787E0
4.222990890E0,-1.660498857E0,1.296672821E0,-1.720710635E0,2.720195205E0
4.227732713E0,-1.196367025E0,7.158555984E-1,-2.553587437E0,2.909390330E0
4.232474536E0,-4.148087502E-1,1.397800446E-1,-3.181844950E0,3.211812891E0
4.237216411E0,1.685130596E-1,-2.447385788E-1,-3.414496660E0,3.427401503E0
4.241958234E0,5.499475002E-1,-5.189933777E-1,-3.409429550E0,3.492278087E0
4.246700056E0,6.317245960E-1,-8.337526321E-1,-3.149076700E0,3.318268145E0
4.251441879E0,5.694024563E-1,-1.126849174E0,-2.699457169E0,2.980113626E0
4.256183702E0,4.415817261E-1,-1.403210163E0,-2.157224894E0,2.611055806E0
4.260925577E0,2.477629185E-1,-1.665393829E0,-1.520766497E0,2.268844157E0
4.265667400E0,8.558559418E-2,-1.851365566E0,-8.961718082E-1,2.058641121E0
4.270409223E0,-3.100275993E-2,-2.011515617E0,-3.176871836E-1,2.036683922E0
4.275151046E0,-2.389297485E-1,-2.272766113E0,1.563023627E-1,2.290629533E0
4.279892869E0,-4.189341068E-1,-2.477294922E0,4.500492215E-1,2.552457682E0
4.284634744E0,-5.450615883E-1,-2.644396782E0,5.447318554E-1,2.754389092E0
4.289376567E0,-5.385117531E-1,-2.733476162E0,4.329849482E-1,2.819461438E0
4.294118390E0,-4.639611244E-1,-2.799611092E0,1.812087893E-1,2.843575006E0
4.298860213E0,-5.943984985E-1,-2.964878082E0,-5.833509564E-2,3.024436245E0
4.303602036E0,-6.932225227E-1,-3.092990875E0,-4.350733161E-1,3.199443516E0
4.308343911E0,-5.785253048E-1,-2.971127033E0,-7.372213602E-1,3.115410520E0
4.313085734E0,-3.503065109E-1,-2.683072090E0,-9.346722364E-1,2.862726442E0
4.317827556E0,8.094239235E-2,-2.197579861E0,-1.001809835E0,2.416512334E0
4.322569379E0,4.075918198E-1,-1.720194817E0,-9.916964769E-1,2.026983769E0
4.327311254E0,5.467548370E-1,-1.324830532E0,-8.711019754E-1,1.677180802E0
4.332053077E0,4.580905437E-1,-1.028107643E0,-7.764889002E-1,1.367401654E0
4.336794900E0,2.660150528E-1,-8.658227921E-1,-6.263155937E-1,1.101219478E0
4.341536723E0,-1.080322266E-2,-8.642692566E-1,-4.442897439E-1,9.718392017E-1
4.346278546E0,-2.552826405E-1,-8.821973801E-1,-2.013190985E-1,9.401972258E-1
4.351020421E0,-2.351348400E-1,-8.811893463E-1,-7.427918911E-2,9.150412313E-1
4.355762244E0,-2.639627457E-2,-8.801631927E-1,-1.133018732E-1,8.878182943E-1
4.360504067E0,1.657071114E-1,-9.626464844E-1,-2.707039714E-1,1.013621103E0
4.365245890E0,2.123005390E-1,-1.169139862E0,-4.198206067E-1,1.260241595E0
4.369987765E0,1.662297249E-1,-1.403845787E0,-4.794925451E-1,1.492758660E0
4.374729588E0,1.354231834E-1,-1.587770462E0,-5.000045300E-1,1.670137422E0
4.379471411E0,7.939839363E-2,-1.775931358E0,-5.028042197E-1,1.847443741E0
4.384213234E0,-1.363539696E-2,-2.047203541E0,-4.160901308E-1,2.089104894E0
4.388955056E0,-2.011194229E-1,-2.267595768E0,-3.089172244E-1,2.297361408E0
4.393696931E0,-3.970241547E-1,-2.508940697E0,-2.240484357E-1,2.550021431E0
4.398438754E0,-6.015119553E-1,-2.692338467E0,-1.634801626E-1,2.763553657E0
4.403180577E0,-8.075134754E-1,-2.832232475E0,-1.269755363E-1,2.947836765E0
4.407922400E0,-9.815762043E-1,-2.890428066E0,-9.767681360E-2,3.054113130E0
4.412664223E0,-1.125994444E0,-2.888517380E0,-8.991539478E-2,3.101528804E0
4.417406098E0,-1.195254803E0,-2.788311481E0,-1.756573915E-1,3.038777794E0
4.422147921E0,-1.251165390E0,-2.620949268E0,-3.529748321E-1,2.925642003E0
4.426889744E0,-1.250181675E0,-2.388831139E0,-6.128777266E-1,2.764975142E0
4.431631567E0,-1.249370337E0,-2.077653408E0,-8.747488260E-1,2.577354347E0
4.436373442E0,-1.293699503E0,-1.699425220E0,-1.184959888E0,2.442505767E0
4.441115265E0,-1.301445484E0,-1.182462692E0,-1.465391636E0,2.288962869E0
4.445857088E0,-1.384765625E0,-6.177616119E-1,-1.582703829E0,2.191838647E0
4.450598911E0,-1.418983936E0,1.453351974E-1,-1.448493600E0,2.032921897E0
4.455340786E0,-1.430211782E0,1.058856010E0,-1.067489624E0,2.075142378E0
4.460082609E0,-1.456366301E0,2.132318497E0,-5.757411122E-1,2.645611990E0
4.464824431E0,-1.504297018E0,3.344139099E0,-5.636593699E-2,3.667335947E0
4.469566254E0,-1.599998713E0,4.615370750E0,4.913499951E-1,4.909487536E0
4.474308077E0,-1.666597605E0,5.931726456E0,1.024994850E0,6.246082033E0
4.479049952E0,-1.785167456E0,7.116334915E0,1.504690409E0,7.489535279E0
4.483791775E0,-1.452407360E0,7.992744446E0,1.897683740E0,8.342341068E0
4.488533598E0,-6.766448021E-1,8.140996933E0,1.785794735E0,8.361981947E0
4.493275421E0,-4.096102715E-1,9.381875038E0,2.127828360E0,9.628863554E0
4.498017296E0,-5.870265961E-1,1.032945251E1,2.598094702E0,1.066734670E1
4.502759119E0,-1.050080776E0,1.081155682E1,3.173415184E0,1.131649214E1
4.507500942E0,-1.554428816E0,1.113191128E1,3.917890549E0,1.190317453E1
4.512242765E0,-1.726652384E0,1.114435482E1,4.385930538E0,1.210018014E1
4.516984640E0,-1.154406071E0,1.090886784E1,4.385200500E0,1.181380693E1
4.521726463E0,-4.227945805E-1,1.066482449E1,3.755791903E0,1.131473417E1
4.526468286E0,3.232288361E-1,1.027825356E1,2.207257509E0,1.051755479E1
4.531210109E0,1.067197442E0,9.701306343E0,2.589006126E-1,9.763261989E0
4.535951931E0,2.113286495E0,8.857509613E0,-2.930151939E0,9.565942021E0
4.540693806E0,3.274893284E0,7.780160904E0,-6.550383568E0,1.068472529E1
4.545435629E0,4.274378777E0,6.382436752E0,-9.662704468E0,1.234397304E1
4.550177452E0,4.812374115E0,4.737248421E0,-1.154403019E1,1.337404577E1
4.554919275E0,4.977783203E0,3.063250542E0,-1.178076458E1,1.315097881E1
4.559661150E0,5.126617432E0,1.682437897E0,-1.001076317E1,1.137225496E1
4.564402973E0,5.571058273E0,6.160469055E-1,-7.297803879E0,9.201855548E0
4.569144796E0,6.033549309E0,-3.125972748E-1,-4.656066895E0,7.627607308E0
4.573886619E0,6.380875111E0,-1.030972481E0,-2.194415569E0,6.825974738E0
4.578628494E0,6.513281345E0,-1.591056824E0,-3.783255816E-1,6.715461708E0
4.583370317E0,6.256343842E0,-1.994664192E0,1.028401613E0,6.646663327E0
4.588112140E0,5.788880348E0,-2.255756855E0,2.192699194E0,6.588437177E0
4.592853963E0,4.781295776E0,-2.567928314E0,3.204985142E0,6.302933832E0
4.597595838E0,3.667126656E0,-2.921329498E0,3.944740295E0,6.127231018E0
4.602337661E0,2.529817820E0,-3.483230114E0,4.042450428E0,5.905444580E0
4.607079484E0,1.811110258E0,-2.718114853E0,4.851855278E0,5.848826238E0
4.611821306E0,1.700531483E0,-2.076200485E0,5.112616062E0,5.774189015E0
4.616563181E0,1.854524612E0,-1.446877480E0,5.153376579E0,5.664804158E0
4.621305004E0,1.910568953E0,-1.021018028E0,5.175972939E0,5.611011263E0
4.626046827E0,1.943795919E0,-5.374593735E-1,5.260127068E0,5.633483995E0
4.630788650E0,2.074661970E0,-3.909111023E-2,5.222260475E0,5.619408766E0
4.635530525E0,2.440433025E0,5.340318680E-1,5.081838608E0,5.662683730E0
4.640272348E0,2.769294500E0,9.954223633E-1,4.817350388E0,5.645061777E0
4.645014171E0,3.093293190E0,1.352429390E0,4.442976952E0,5.580105035E0
4.649755994E0,3.475624800E0,1.731927872E0,3.920022011E0,5.517799785E0
4.654497869E0,3.843153954E0,2.002386093E0,3.293537140E0,5.443047792E0
4.659239692E0,4.249579430E0,2.192656517E0,2.560795784E0,5.424420981E0
4.663981515E0,4.852106094E0,2.240875244E0,1.834446192E0,5.650632552E0
4.668723338E0,5.547564983E0,1.965816498E0,1.098257661E0,5.987159730E0
4.673465161E0,5.286967278E0,1.234169960E0,7.026882172E-1,5.474392132E0
4.678207036E0,4.601440430E0,6.060724258E-1,7.284725308E-1,4.698004900E0
4.682948859E0,3.882338524E0,1.005487442E-1,1.005312681E0,4.011647548E0
4.687690681E0,3.187695265E0,-2.897586823E-1,1.449018359E0,3.513547410E0
4.692432504E0,2.587572336E0,-5.626344681E-1,1.862691164E0,3.237546372E0
4.697174379E0,2.087582588E0,-7.540969849E-1,2.293245554E0,3.191494712E0
4.701916202E0,1.681548834E0,-8.761959076E-1,2.600614071E0,3.218465363E0
4.706658025E0,1.210392237E0,-1.053335190E0,2.663600922E0,3.109555315E0
4.711399900E0,7.615866661E-1,-1.223289490E0,2.420199394E0,2.816703132E0
4.716141723E0,3.078528643E-1,-1.496123314E0,1.778931141E0,2.344729059E0
4.720883546E0,-2.786734104E-1,-1.867143154E0,7.287772894E-1,2.023610329E0
4.725625369E0,-9.346339703E-1,-2.279204845E0,-5.121396780E-1,2.516068846E0
4.730367244E0,-1.517685175E0,-2.720716953E0,-1.776162863E0,3.586143269E0
4.735109067E0,-2.000117302E0,-3.149030209E0,-2.977002144E0,4.772777204E0
4.739850890E0,-2.215365887E0,-3.547821522E0,-3.951450348E0,5.754028451E0
4.744592713E0,-2.284090757E0,-3.955798626E0,-4.746402264E0,6.587393096E0
4.749334588E0,-2.056500435E0,-4.363629341E0,-5.266486645E0,7.141872069E0
4.754076411E0,-1.789714813E0,-4.757083416E0,-5.374724388E0,7.397336277E0
4.758818234E0,-1.376938820E0,-5.018898487E0,-5.258644104E0,7.398556640E0
4.763560056E0,-8.046030998E-1,-5.220744133E0,-5.079236984E0,7.328178750E0
4.768301931E0,-8.295702934E-2,-5.230888844E0,-4.796674728E0,7.097687540E0
4.773043754E0,7.350769043E-1,-5.108926773E0,-4.452716351E0,6.816755366E0
4.777785577E0,1.635121822E0,-4.859392166E0,-4.111253738E0,6.571888838E0
4.782527400E0,2.485620260E0,-4.525091171E0,-3.633234978E0,6.313093900E0
4.787269275E0,3.143215418E0,-4.175175190E0,-3.157705545E0,6.105980293E0
4.792011098E0,3.589151859E0,-3.754468441E0,-2.778650045E0,5.890580652E0
4.796752921E0,3.867312670E0,-3.413612843E0,-2.621751547E0,5.786401394E0
4.801494744E0,3.902239799E0,-3.107144833E0,-2.705411196E0,5.674599034E0
4.806236619E0,3.690505028E0,-2.835311890E0,-3.015009642E0,5.545187464E0
4.810978442E0,3.477850676E0,-2.603297234E0,-3.486023664E0,5.570005637E0
4.815720265E0,3.211050034E0,-2.409260750E0,-4.037284851E0,5.693421524E0
4.820462140E0,2.793479443E0,-2.339897156E0,-4.336030006E0,5.663903452E0
4.825203963E0,2.072421789E0,-2.441270828E0,-4.245270729E0,5.317617784E0
4.829945786E0,1.133252382E0,-2.702043056E0,-3.775735140E0,4.779275414E0
4.834687609E0,3.417003155E-2,-3.106149197E0,-3.074173450E0,4.370340127E0
4.839429484E0,-1.052313805E0,-3.654149532E0,-2.241349459E0,4.414048090E0
4.844171306E0,-2.089690685E0,-4.217204094E0,-1.289211750E0,4.879926687E0
4.848913129E0,-2.643419981E0,-4.697311401E0,-3.083839417E-1,5.398842862E0
4.853654952E0,-2.776179790E0,-5.211558819E0,6.322269440E-1,5.938621933E0
4.858396827E0,-2.870472670E0,-5.742711067E0,1.545355320E0,6.603519275E0
4.863138650E0,-2.693467617E0,-6.110876083E0,2.412623882E0,7.100586476E0
4.867880473E0,-2.390212059E0,-6.356337547E0,3.186954260E0,7.501521056E0
4.872622348E0,-1.937776327E0,-6.469081402E0,3.895432949E0,7.796049585E0
4.877364171E0,-1.669075012E0,-6.429541588E0,4.459879398E0,8.000958735E0
4.882105994E0,-1.241774797E0,-6.464395523E0,4.862173080E0,8.183589750E0
4.886847817E0,-8.874949813E-1,-6.436651230E0,5.155974865E0,8.294709350E0
4.891589692E0,-7.632445097E-1,-6.508201599E0,5.333250523E0,8.448833729E0
4.896331515E0,-6.956781745E-1,-6.692424774E0,5.328905106E0,8.583108243E0
4.901073338E0,-5.499545336E-1,-6.794628143E0,5.250288486E0,8.604356500E0
4.905815161E0,-1.387580335E-1,-6.768707275E0,5.025127411E0,8.431284449E0
4.910557036E0,5.702046752E-1,-6.466054440E0,4.477789879E0,7.885784399E0
4.915298859E0,1.772538781E0,-5.731137753E0,3.618980885E0,7.006058543E0
4.920040681E0,3.020775557E0,-4.774376869E0,2.353896379E0,6.120505503E0
4.924782556E0,4.221034050E0,-3.492970467E0,1.007583141E0,5.570744557E0
4.929524379E0,5.104565144E0,-2.021310329E0,-2.716016769E-2,5.490265788E0
4.934266202E0,5.691481113E0,-4.845061302E-1,-6.915383339E-1,5.753775171E0
4.939008025E0,6.018951893E0,1.126597404E0,-1.067605972E0,6.215849589E0
4.943749900E0,6.013216019E0,2.805726051E0,-1.340121746E0,6.769548867E0
4.948491723E0,5.488966942E0,4.559697151E0,-1.049769402E0,7.212600918E0
4.953233546E0,4.352561951E0,6.453038216E0,-5.936541557E-1,7.806338643E0
4.957975421E0,2.722941160E0,8.338597298E0,-1.161743641E0,8.848517488E0
4.962717244E0,7.971175313E-1,1.013327217E1,-3.012809277E0,1.060168010E1
4.967459067E0,-1.150407910E0,1.160692406E1,-8.136582375E0,1.422139575E1
4.972200890E0,-3.047116280E0,1.252986908E1,-1.474540329E1,1.958850313E1
4.976942765E0,-5.150536060E0,1.277616692E1,-1.918294525E1,2.361660118E1
4.981684588E0,-6.683941841E0,1.212054825E1,-1.917266273E1,2.364685528E1
4.986426411E0,-6.382516861E0,1.013190460E1,-1.654285049E1,2.042199586E1
4.991168234E0,-5.620844841E0,9.842844963E0,-1.197793961E1,1.649080140E1
4.995910109E0,-4.932021141E0,9.781038284E0,-8.950916290E0,1.414611059E1
5.000651931E0,-4.386388779E0,9.462745667E0,-7.243651867E0,1.269860049E1
5.005393754E0,-3.825984478E0,8.568674088E0,-5.741530418E0,1.100115923E1
5.010135629E0,-1.325846076E0,6.669299603E0,-5.621074200E0,8.822352303E0
5.014877452E0,2.641550303E-1,6.264342308E0,-5.793655872E0,8.536873596E0
5.019619275E0,7.709683180E-1,6.183454514E0,-6.170372009E0,8.769435136E0
5.024361098E0,8.185508251E-1,6.355157852E0,-6.968949318E0,9.467011745E0
5.029102973E0,6.673904061E-1,6.863812447E0,-8.026533127E0,1.058218150E1
5.033844796E0,2.521705627E-2,7.638826370E0,-9.258687973E0,1.200314989E1
5.038586619E0,-1.040333271E0,8.744178772E0,-1.036961365E1,1.360411125E1
5.043328494E0,-2.293742180E0,1.004815960E1,-1.099122238E1,1.506763863E1
5.048070317E0,-3.599711418E0,1.140286160E1,-1.095582771E1,1.621768589E1
5.052812140E0,-4.678557396E0,1.284251690E1,-9.927946091E0,1.689329018E1
5.057553963E0,-6.140794754E0,1.419368267E1,-8.028347015E0,1.742481976E1
5.062295838E0,-7.954476833E0,1.497745514E1,-5.532389164E0,1.783830693E1
5.067037661E0,-9.558914185E0,1.556195545E1,-3.253506184E0,1.855081131E1
5.071779484E0,-1.060623169E1,1.617080116E1,-2.149244785E0,1.945780599E1
5.076521359E0,-9.906256676E0,1.667264557E1,-2.253021717E0,1.952401440E1
5.081263181E0,-8.481315613E0,1.692404747E1,-2.917681932E0,1.915382377E1
5.086005004E0,-7.283763885E0,1.728426743E1,-2.663139582E0,1.894443003E1
5.090746879E0,-6.288963795E0,1.740203476E1,-1.916145563E0,1.860251309E1
5.095488702E0,-5.523452282E0,1.704599190E1,-9.163930416E-1,1.794196592E1
5.100230525E0,-4.518112183E0,1.682427406E1,-3.437030315E-1,1.742376731E1
5.104972348E0,-3.256008148E0,1.659822845E1,-1.910278797E-1,1.691565158E1
5.109714223E0,-2.347149611E0,1.614556885E1,-3.178973198E-1,1.631838115E1
5.114456046E0,-1.566057205E0,1.566054440E1,-3.781375885E-1,1.574319453E1
5.119197869E0,-7.470180392E-1,1.533028412E1,-4.317862988E-1,1.535454612E1
5.123939744E0,-9.125804901E-2,1.482049561E1,-5.095934868E-1,1.482953484E1
5.128681567E0,6.755810976E-2,1.384748936E1,-6.441820860E-1,1.386262948E1
5.133423390E0,2.263218164E-2,1.257038307E1,-4.702171087E-1,1.257919500E1
5.138165265E0,3.576081991E-2,1.116717434E1,-1.413786411E-2,1.116724055E1
5.142907088E0,-2.941081524E-1,9.215171814E0,2.453695536E-1,9.223128395E0
5.147648911E0,-5.368945599E-1,6.839556694E0,-6.299239397E-2,6.860886210E0
5.152390734E0,-3.001031876E-1,4.150885582E0,-1.483439445E0,4.418201628E0
5.157132609E0,2.128762007E-2,1.532106400E0,-3.375847340E0,3.707310136E0
5.161874431E0,3.497187495E-1,-1.363723755E0,-5.223553658E0,5.409949953E0
5.166616254E0,5.971040130E-1,-4.290419102E0,-6.068112850E0,7.455616865E0
5.171358129E0,1.132602811E0,-6.847041130E0,-5.755138874E0,9.015896230E0
5.176099952E0,2.178777218E0,-8.692981720E0,-5.928489685E0,1.074532416E1
5.180841775E0,3.191686392E0,-9.775107384E0,-5.821820736E0,1.181664855E1
5.185583598E0,3.951591969E0,-1.030833912E1,-4.621404648E0,1.196805395E1
5.190325473E0,4.280320168E0,-1.024415779E1,-2.719526768E0,1.143064895E1
5.195067296E0,4.126708031E0,-9.612702370E0,-8.216726780E-2,1.046138220E1
5.199809119E0,3.845558643E0,-8.582642555E0,2.561861992E0,9.747472051E0
5.204550994E0,3.358789921E0,-7.929945946E0,4.480957031E0,9.707960051E0
5.209292817E0,2.386985540E0,-8.081569672E0,6.485078812E0,1.063323636E1
5.214034640E0,1.124387860E0,-8.882136345E0,9.740094185E0,1.322974032E1
5.218776515E0,7.986688614E-2,-9.297048569E0,1.342361259E1,1.632895789E1
5.223518338E0,3.751273155E-1,-8.747236252E0,1.423048592E1,1.670812952E1
5.228260161E0,2.099900723E0,-7.714928627E0,1.125817585E1,1.380855641E1
5.233001984E0,3.285118580E0,-7.655528069E0,6.007191658E0,1.027061175E1
5.237743859E0,3.760441780E0,-7.867600441E0,-5.674954653E-1,8.738541651E0
5.242485681E0,3.354447126E0,-8.267709732E0,-6.840618134E0,1.124283755E1
5.247227504E0,2.373069525E0,-8.927118301E0,-9.691740036E0,1.338860430E1
5.251969379E0,9.697096348E-1,-1.002887535E1,-9.953468323E0,1.416298730E1
5.256711202E0,-5.127990246E-2,-1.074295330E1,-8.946727753E0,1.398061561E1
5.261453025E0,-7.673904300E-1,-1.095581818E1,-7.802506447E0,1.347211739E1
5.266194900E0,-1.459322453E0,-1.087950611E1,-6.314379215E0,1.266351689E1
5.270936723E0,-1.945921898E0,-1.074261093E1,-5.079620838E0,1.204129767E1
5.275678546E0,-1.751636386E0,-1.077102280E1,-3.775141716E0,1.154707136E1
5.280420421E0,-1.289254904E0,-1.054687786E1,-2.361502647E0,1.088464540E1
5.285162244E0,-7.407524586E-1,-1.054215813E1,-1.814074993E0,1.072271795E1
5.289904067E0,-6.110566854E-1,-1.061122322E1,-1.319731951E0,1.071042207E1
5.294645942E0,-6.500995159E-1,-1.065161324E1,-5.244581699E-1,1.068431328E1
5.299387765E0,-9.458730221E-1,-1.058020210E1,-1.950052977E-1,1.062418841E1
5.304129588E0,-1.039518237E0,-1.045722103E1,2.143144608E-2,1.050878343E1
5.308871463E0,-6.574594975E-1,-1.029958820E1,1.509807110E-1,1.032165516E1
5.313613286E0,-2.371261120E-1,-1.050933075E1,-3.029828072E-1,1.051637106E1
5.318355109E0,1.291208267E-1,-1.076564598E1,-4.629904032E-2,1.076651983E1
5.323096984E0,6.883726120E-1,-1.084355354E1,9.339259267E-1,1.090544488E1
5.327838806E0,1.086474061E0,-1.071211433E1,1.528914452E0,1.087508155E1
5.332580629E0,1.292318225E0,-1.073506641E1,1.677375913E0,1.094190693E1
5.337322452E0,1.356248260E0,-1.081182766E1,1.528019905E0,1.100317552E1
5.342064327E0,1.450816989E0,-1.074371052E1,1.696917892E0,1.097322724E1
5.346806150E0,1.655438304E0,-1.057845116E1,2.068177223E0,1.090511173E1
5.351547973E0,1.865371466E0,-1.041153812E1,2.454325438E0,1.085833552E1
5.356289848E0,2.066886663E0,-1.028818893E1,2.679466009E0,1.083043813E1
5.361031671E0,2.243786812E0,-1.021295166E1,2.873826027E0,1.084425364E1
5.365773494E0,2.319814205E0,-1.017604446E1,3.100867748E0,1.088801174E1
5.370515369E0,2.350350857E0,-1.015579605E1,3.227441549E0,1.091241135E1
5.375257192E0,2.321200848E0,-1.015931988E1,3.117691994E0,1.087748855E1
5.379999015E0,2.270692348E0,-1.018900967E1,2.919847488E0,1.083962504E1
5.384740890E0,2.275434971E0,-1.023287964E1,2.930336714E0,1.088468205E1
5.389482713E0,2.321121693E0,-1.031002331E1,3.304351091E0,1.107262041E1
5.394224536E0,2.465114594E0,-1.034625530E1,3.769104958E0,1.128396831E1
5.398966411E0,2.571053505E0,-1.040138340E1,3.980402946E0,1.142990378E1
5.403708234E0,2.658208847E0,-1.041317368E1,3.979764462E0,1.146031350E1
5.408450056E0,2.645311117E0,-1.034578609E1,3.921187878E0,1.137579339E1
5.413191931E0,2.566124201E0,-1.026623535E1,3.704858780E0,1.121189370E1
5.417933754E0,2.447216034E0,-1.018170166E1,3.170760155E0,1.094118983E1
5.422675577E0,2.338945389E0,-1.010416222E1,2.648967266E0,1.070428826E1
5.427417452E0,2.281990528E0,-1.005514431E1,2.335276604E0,1.057198774E1
5.432159275E0,2.233335018E0,-1.004417324E1,2.215003729E0,1.052518137E1
5.436901098E0,2.324639320E0,-1.001140404E1,2.302362442E0,1.053247509E1
5.441642973E0,2.379008293E0,-9.997474670E0,2.329466820E0,1.053734292E1
5.446384796E0,2.351022959E0,-1.005976963E1,2.231467247E0,1.056909268E1
5.451126619E0,2.300543785E0,-1.011690712E1,2.173252106E0,1.060034604E1
5.455868494E0,2.265767336E0,-1.014260197E1,2.107027531E0,1.060403891E1
5.460610317E0,2.184355736E0,-1.017278385E1,2.075763226E0,1.060970001E1
5.465352140E0,2.065796614E0,-1.019072533E1,2.055493832E0,1.059921946E1
5.470094015E0,1.928972960E0,-1.019410324E1,2.074768543E0,1.058042258E1
5.474835838E0,1.749724507E0,-1.017818642E1,2.028518438E0,1.052482312E1
5.479577713E0,1.551773906E0,-1.013586235E1,1.998211861E0,1.044684443E1
5.484319536E0,1.349143744E0,-1.010786533E1,1.991144896E0,1.039008125E1
5.489061359E0,1.191745400E0,-1.005835247E1,2.041135788E0,1.033232533E1
5.493803234E0,9.955082536E-1,-9.996956825E0,2.150927305E0,1.027407761E1
5.498545056E0,8.222842216E-1,-9.952439308E0,2.208404303E0,1.022762187E1
5.503286879E0,6.454309225E-1,-9.869832993E0,2.235291958E0,1.014035081E1
5.508028754E0,5.076974630E-1,-9.792268753E0,2.270112276E0,1.006477490E1
5.512770577E0,3.058784008E-1,-9.731744766E0,2.363173723E0,1.001923190E1
5.517512400E0,1.544976234E-1,-9.678711891E0,2.517107248E0,1.000185794E1
5.522254275E0,-9.012818336E-3,-9.666667938E0,2.713144779E0,1.004020442E1
5.526996098E0,-1.801987886E-1,-9.654925346E0,2.922963142E0,1.008928980E1
5.531737921E0,-2.708472013E-1,-9.624351501E0,3.103868961E0,1.011610115E1
5.536479796E0,-3.265638351E-1,-9.582109451E0,3.196082115E0,1.010635475E1
5.541221619E0,-3.833551407E-1,-9.516244888E0,3.098684072E0,1.001537423E1
5.545963442E0,-2.975034714E-1,-9.443452835E0,2.914156675E0,9.887346403E0
5.550705317E0,-1.734144688E-1,-9.284214020E0,2.920558453E0,9.734288069E0
5.555447140E0,3.678586483E-1,-7.871045589E0,1.045383358E1,1.309088672E1
5.560189015E0,-2.234227657E-1,-8.447313309E0,7.830998421E0,1.152091820E1
5.564930838E0,-2.106012106E-1,-1.008009434E1,4.549033642E0,1.106102897E1
5.569672661E0,-3.145815134E-1,-1.008629799E1,5.081364155E0,1.129834635E1
5.574414536E0,-7.579616308E-1,-1.034725571E1,2.375119686E0,1.064337353E1
5.579156359E0,-1.093386531E0,-1.046399212E1,-3.743555069E0,1.116713167E1
5.583898181E0,-9.009519815E-1,-9.397542000E0,-1.055325317E1,1.415968441E1
5.588640056E0,-6.040294170E-1,-8.418224335E0,-1.570387650E1,1.782815440E1
5.593381879E0,5.383658409E-2,-7.310627937E0,-1.864954567E1,2.003131880E1
5.598123754E0,1.699541807E-1,-5.762210846E0,-2.176173782E1,2.251233420E1
5.602865577E0,-9.286822081E-1,-3.654186726E0,-2.399003792E1,2.428451051E1
5.607607400E0,-2.554289818E0,-1.182658195E0,-2.359654427E1,2.376383761E1
5.612349275E0,-2.977717161E0,9.930458069E-1,-2.211995697E1,2.234156297E1
5.617091098E0,-3.271560192E0,2.503937721E0,-2.096537399E1,2.136632202E1
5.621832973E0,-4.433662891E0,3.857580185E0,-1.828078842E1,1.920222687E1
5.626574796E0,-5.140503883E0,3.811772346E0,-1.485392189E1,1.617384877E1
5.631316619E0,-5.368731976E0,4.225620270E0,-7.334515572E0,1.002368537E1
5.636058494E0,-5.727121830E0,7.453294754E0,-2.538421631E0,9.736278114E0
5.640800317E0,-6.968190193E0,1.301667881E1,3.779776096E0,1.524061380E1
5.645542192E0,-7.800339699E0,1.721156693E1,1.290361595E1,2.288201565E1
5.650284015E0,-6.004011154E0,2.140724564E1,1.508780193E1,2.686931489E1
5.655025838E0,-2.790365219E0,2.948359680E1,6.140148640E0,3.024516563E1
5.659767713E0,3.010969400E0,4.581254578E1,-1.294716644E1,4.770203776E1
5.664509536E0,1.090498924E1,6.552667236E1,-2.877976990E1,7.239432807E1
5.669251411E0,1.702480888E1,6.900755310E1,-2.848401260E1,7.657170154E1
5.673993234E0,1.188204670E1,6.550093079E1,-1.494875145E1,6.822770799E1
5.678735056E0,8.282221794E0,6.130194092E1,-9.595334530E-1,6.186633869E1
5.683476931E0,6.873112202E0,5.635224152E1,2.288172722E0,5.681593553E1
5.688218754E0,9.431901932E0,4.949204254E1,-2.125137091E0,5.042756445E1
5.692960629E0,1.304554653E1,4.003981018E1,-7.896203041E0,4.284533471E1
5.697702452E0,1.455864906E1,3.159515190E1,-1.039730167E1,3.630856329E1
5.702444327E0,1.391911030E1,2.534387970E1,-8.729831696E0,3.020370559E1
5.707186150E0,1.272460747E1,2.117215538E1,-5.728802681E0,2.535734566E1
5.711927973E0,1.154306793E1,1.782256699E1,-5.497806549E0,2.193426972E1
5.716669848E0,1.037477398E1,1.555273628E1,-8.065551758E0,2.036115582E1
5.721411671E0,8.668609619E0,1.408750916E1,-1.107328701E1,1.990528553E1
5.726153546E0,6.647025108E0,1.391176701E1,-1.192569256E1,1.949210987E1
5.730895369E0,4.481408119E0,1.442087078E1,-1.083304596E1,1.858492447E1
5.735637244E0,2.585254669E0,1.517892265E1,-8.189393044E0,1.743987939E1
5.740379067E0,1.429851770E0,1.583662415E1,-4.851464272E0,1.662467582E1
5.745120942E0,6.921153665E-1,1.622864532E1,-2.343153477E0,1.641153012E1
5.749862765E0,8.278056979E-2,1.658864784E1,1.894214153E-1,1.658993581E1
5.754604588E0,-1.092509747E0,1.672595406E1,1.394740343E0,1.681952488E1
5.759346463E0,-2.885247707E0,1.663346481E1,1.487077951E0,1.694721826E1
5.764088286E0,-5.049269676E0,1.622930527E1,6.525751948E-1,1.700915424E1
5.768830161E0,-6.831508160E0,1.531901455E1,-4.260597229E-1,1.677865422E1
5.773571984E0,-7.532820225E0,1.392357445E1,-1.725265741E0,1.592437904E1
5.778313859E0,-7.105762959E0,1.226516056E1,-3.036797047E0,1.449648810E1
5.783055681E0,-5.711700439E0,1.047060966E1,-3.859234571E0,1.253598341E1
5.787797556E0,-3.881058216E0,8.707808495E0,-3.821082592E0,1.027079422E1
5.792539379E0,-2.173964977E0,6.994104385E0,-3.039564133E0,7.929853088E0
5.797281254E0,-7.838023901E-1,5.337315559E0,-1.682568669E0,5.650869039E0
5.802023077E0,2.390134335E-2,3.981612206E0,1.879952699E-1,3.986119573E0
5.806764900E0,3.417742252E-1,2.854751587E0,1.470459223E0,3.229344604E0
5.811506775E0,3.983314037E-1,1.786291122E0,2.305733442E0,2.943791872E0
5.816248650E0,5.799167156E-1,6.036491394E-1,2.457536697E0,2.596186106E0
5.820990473E0,5.949227810E-1,-4.854364395E-1,2.088079691E0,2.224782787E0
5.825732296E0,6.156464815E-1,-1.928609848E0,1.239624977E0,2.373863227E0
5.830474171E0,9.009045362E-1,-3.668243408E0,4.238013029E-1,3.800953332E0
5.835215994E0,1.326904416E0,-5.601222038E0,-7.331914306E-1,5.802752220E0
5.839957869E0,1.815909863E0,-7.638722897E0,-2.270172834E0,8.173206275E0
5.844699692E0,2.381214380E0,-9.397891045E0,-3.565415859E0,1.032970127E1
5.849441567E0,2.612276554E0,-1.082184792E1,-3.844791412E0,1.177789464E1
5.854183390E0,2.633976460E0,-1.197150993E1,-2.584883213E0,1.252743004E1
5.858925265E0,2.656834602E0,-1.275299263E1,3.140974045E-1,1.303058895E1
5.863667088E0,2.675146103E0,-1.333600807E1,4.341238022E0,1.427767017E1
5.868408963E0,2.797095299E0,-1.373860931E1,6.244936466E0,1.534836667E1
5.873150786E0,2.977370977E0,-1.374578667E1,6.093450546E0,1.532780247E1
5.877892661E0,3.065176249E0,-1.345785141E1,4.766751766E0,1.460243104E1
5.882634536E0,3.061237335E0,-1.313502884E1,3.524974346E0,1.394007176E1
5.887376359E0,3.074722290E0,-1.285064793E1,2.666877985E0,1.347981111E1
5.892118234E0,3.128818989E0,-1.268999195E1,2.235990524E0,1.325990413E1
5.896860056E0,3.117609024E0,-1.266900063E1,1.895418167E0,1.318391721E1
5.901601931E0,3.127230644E0,-1.269838142E1,1.271792650E0,1.313947940E1
5.906343754E0,3.237347603E0,-1.280380154E1,5.616538525E-1,1.321866893E1
5.911085629E0,3.161858082E0,-1.301350212E1,3.649097681E-1,1.339707965E1
5.915827452E0,2.917123079E0,-1.328155708E1,4.653346539E-1,1.360609797E1
5.920569327E0,2.695052385E0,-1.341859245E1,7.186935544E-1,1.370541686E1
5.925311150E0,2.453000546E0,-1.352492714E1,1.240489006E0,1.380143756E1
5.930053025E0,2.172068834E0,-1.347599030E1,2.062296867E0,1.380482763E1
5.934794848E0,2.022092342E0,-1.351567841E1,2.476207256E0,1.388862926E1
5.939536723E0,2.000102758E0,-1.352676487E1,2.168277025E0,1.384468144E1
5.944278598E0,2.042461872E0,-1.349991226E1,2.073937416E0,1.381015923E1
5.949020421E0,1.974566102E0,-1.326314831E1,2.388439417E0,1.362037654E1
5.953762296E0,1.862966657E0,-1.293165588E1,2.687497854E0,1.333870359E1
5.958504119E0,2.051841497E0,-1.249132442E1,2.740027189E0,1.295187200E1
5.963245994E0,2.299252272E0,-1.204053497E1,2.591464043E0,1.252903545E1
5.967987817E0,2.810874939E0,-1.142638493E1,2.667656660E0,1.206564057E1
5.972729692E0,3.227221489E0,-1.093852329E1,3.004814148E0,1.179386105E1
5.977471515E0,3.617140532E0,-1.034735298E1,3.352196693E0,1.146248847E1
5.982213390E0,3.762414217E0,-9.791870117E0,3.360826969E0,1.101506419E1
5.986955265E0,3.669401646E0,-9.480391502E0,3.279582024E0,1.068166606E1
5.991697088E0,3.427838326E0,-9.305420876E0,3.127478123E0,1.039817545E1
5.996438963E0,3.184935093E0,-9.169113159E0,2.942716360E0,1.014278203E1
6.001180786E0,3.004317999E0,-9.052611351E0,2.722754478E0,9.919127525E0
6.005922661E0,2.913829327E0,-8.977695465E0,2.560731411E0,9.779916286E0
6.010664536E0,2.824336529E0,-8.961346626E0,2.319866657E0,9.678036551E0
6.015406359E0,2.684992075E0,-8.977483749E0,2.124318838E0,9.608180236E0
6.020148234E0,2.485551834E0,-8.935386658E0,2.139334917E0,9.518185569E0
6.024890056E0,2.318410635E0,-8.842385292E0,2.358352184E0,9.440584227E0
6.029631931E0,2.187563181E0,-8.916290283E0,2.556660414E0,9.530067028E0
6.034373754E0,2.138017893E0,-8.970516205E0,2.586074829E0,9.577529144E0
6.039115629E0,2.088216782E0,-8.909513474E0,2.559194088E0,9.502081564E0
6.043857504E0,2.105367422E0,-8.805102348E0,2.576588392E0,9.412821420E0
6.048599327E0,2.113261461E0,-8.750425339E0,2.593104601E0,9.368031228E0
6.053341202E0,2.083536386E0,-8.726164818E0,2.651988983E0,9.355218964E0
6.058083077E0,2.097963095E0,-8.729733467E0,2.727089643E0,9.383321026E0
6.062824900E0,2.094847441E0,-8.736982346E0,2.806698322E0,9.412799891E0
6.067566775E0,2.089059591E0,-8.759661674E0,2.862378120E0,9.449288393E0
6.072308598E0,1.997406721E0,-8.838196754E0,2.853819609E0,9.499875885E0
6.077050473E0,1.885030866E0,-8.926926613E0,2.802778482E0,9.544575807E0
6.081792348E0,1.781134248E0,-9.037601471E0,2.680901527E0,9.593639172E0
6.086534171E0,1.669262052E0,-9.146233559E0,2.579046011E0,9.648393775E0
6.091276046E0,1.656030297E0,-9.174097061E0,2.198791027E0,9.578161369E0
6.096017921E0,1.631298900E0,-9.159976006E0,1.426881075E0,9.412878737E0
6.100759744E0,1.359757423E0,-9.579559326E0,2.030492544E0,9.886343971E0
6.105501619E0,6.286886930E-1,-1.003695774E1,2.839718342E0,1.044986940E1
6.110243494E0,-1.013588905E-2,-1.010613060E1,2.830996990E0,1.049516662E1
6.114985317E0,-5.750511885E-1,-1.004591751E1,2.498630524E0,1.036794565E1
6.119727192E0,-1.036506176E0,-1.005035496E1,2.414813995E0,1.038822923E1
6.124469067E0,-1.209168792E0,-1.011709499E1,2.510183811E0,1.049374685E1
6.129210890E0,-1.378652573E0,-1.014329147E1,2.610275984E0,1.056411783E1
6.133952765E0,-1.763574243E0,-1.024145699E1,2.732251167E0,1.074536327E1
6.138694640E0,-2.022531748E0,-1.029920101E1,2.739988327E0,1.084765930E1
6.143436463E0,-2.209070921E0,-1.026644993E1,2.683955908E0,1.083898555E1
6.148178338E0,-2.410096169E0,-1.033471012E1,2.631118059E0,1.093332425E1
6.152920213E0,-2.465885878E0,-1.031734180E1,2.567315578E0,1.091417630E1
6.157662036E0,-2.491619587E0,-1.025507832E1,2.475789070E0,1.083994146E1
6.162403911E0,-2.532980919E0,-1.018859768E1,2.346901894E0,1.075785590E1
6.167145786E0,-2.609129429E0,-1.016569424E1,2.060868025E0,1.069560997E1
6.171887609E0,-2.511661530E0,-1.013363647E1,1.648520470E0,1.056960981E1
6.176629484E0,-2.220760584E0,-1.008031750E1,1.140698433E0,1.038488186E1
6.181371359E0,-1.893569946E0,-9.984082222E0,7.858263850E-1,1.019240051E1
6.186113181E0,-1.579411387E0,-9.863940239E0,4.328522682E-1,9.998960869E0
6.190855056E0,-1.313206196E0,-9.712572098E0,1.367002726E-1,9.801900542E0
6.195596931E0,-9.905691743E-1,-9.544119835E0,-3.751499653E-1,9.602717751E0
6.200338806E0,-4.279756546E-1,-9.231134415E0,-1.715182424E0,9.398875278E0
6.205080629E0,1.075867534E0,-8.350412369E0,-7.765395164E0,1.145374348E1
6.209822504E0,1.318016410E0,-7.795178413E0,-3.533053875E0,8.659355833E0
6.214564379E0,1.068467617E0,-7.962878227E0,-9.556640387E-1,8.090880451E0
6.219306202E0,1.060758114E0,-8.549059868E0,-1.791437507E0,8.798913611E0
6.224048077E0,6.894665956E-2,-9.186385155E0,2.230311394E0,9.453502778E0
6.228789952E0,-4.485974312E-1,-9.412136078E0,6.008831024E0,1.117566980E1
6.233531827E0,-9.886537194E-1,-1.043591118E1,8.650480270E0,1.359104438E1
6.238273650E0,-2.406400681E0,-1.250988960E1,1.062255096E1,1.658694339E1
6.243015525E0,-2.257616520E0,-1.350988770E1,8.894696236E0,1.633185596E1
6.247757400E0,1.485619783E0,-1.161258984E1,1.397355556E0,1.179033127E1
6.252499275E0,4.740449905E0,-9.128775597E0,-1.276246738E1,1.639167420E1
6.257241098E0,8.052555084E0,-4.885812283E0,-3.652765656E1,3.772246676E1
6.261982973E0,9.384576797E0,3.172082901E-1,-5.400090408E1,5.481120820E1
6.266724848E0,6.617948532E0,3.409729004E0,-5.041560745E1,5.096230930E1
6.271466723E0,3.732559681E0,3.267855644E0,-3.676015854E1,3.709339750E1
6.276208546E0,1.650991559E0,2.237232208E0,-2.637174225E1,2.651791414E1
6.280950421E0,-1.411281973E-1,2.993175507E0,-2.241003227E1,2.260947950E1
6.285692296E0,-1.390656114E0,4.350982666E0,-1.784084129E1,1.841631322E1
6.290434171E0,-3.247423410E0,5.152433395E0,-6.086922646E0,8.610688474E0
6.295175994E0,-4.273377895E0,6.119900703E0,1.152677727E1,1.373249931E1
6.299917869E0,-5.272996426E0,7.994843483E0,2.888162994E1,3.042812123E1
6.304659744E0,-7.725584030E0,1.080602741E1,3.669628906E1,3.902656157E1
6.309401619E0,-5.140314579E0,1.445980263E1,2.941946411E1,3.318152490E1
6.314143442E0,5.239560604E-1,2.631447220E1,8.470718861E-1,2.633331555E1
6.318885317E0,9.761551857E0,4.625838470E1,-4.841271973E1,6.766769895E1
6.323627192E0,1.073154163E1,5.891461182E1,-5.454535675E1,8.100181118E1
6.328369067E0,1.261161804E0,5.511528397E1,-2.014541054E1,5.869516693E1
6.333110942E0,-4.468173027E0,4.583050537E1,9.802179337E0,4.707953390E1
6.337852765E0,-2.012967110E0,3.987150192E1,1.882253838E1,4.413702134E1
6.342594640E0,4.201148987E0,3.539605713E1,1.241314602E1,3.774409500E1
6.347336515E0,1.095361519E1,3.158226395E1,-1.656734467E0,3.346887884E1
6.352078390E0,1.442221642E1,2.716191483E1,-9.388089180E0,3.215441123E1
6.356820265E0,1.470386505E1,2.316601562E1,-7.024425983E0,2.832332056E1
6.361562140E0,1.521209717E1,1.952331352E1,-4.487516880E0,2.515363749E1
6.366303963E0,1.784723282E1,1.664102936E1,-8.998468399E0,2.600807588E1
6.371045838E0,2.037802505E1,1.446270275E1,-1.488766766E1,2.908739116E1
6.375787713E0,2.043796158E1,1.285400391E1,-1.563791180E1,2.876595167E1
6.380529588E0,1.785848999E1,1.185499477E1,-1.169540787E1,2.441821310E1
6.385271463E0,1.464615059E1,1.169218826E1,-7.035491943E0,2.001787052E1
6.390013286E0,1.155475044E1,1.214222908E1,-4.951016426E0,1.747737247E1
6.394755161E0,8.523531914E0,1.305389118E1,-5.052306175E0,1.638842485E1
6.399497036E0,5.861843109E0,1.444540310E1,-5.328244686E0,1.647486166E1
6.404238911E0,3.782561541E0,1.612468719E1,-4.270498276E0,1.710410665E1
6.408980786E0,2.158770084E0,1.796927261E1,-2.213271141E0,1.823331061E1
6.413722661E0,8.314996958E-1,1.972748184E1,6.427454948E-2,1.974510225E1
6.418464484E0,-6.419241428E-1,2.114039612E1,2.289817810E0,2.127373217E1
6.423206359E0,-1.982876062E0,2.168856621E1,3.990754366E0,2.214163097E1
6.427948234E0,-2.361666918E0,2.139657021E1,5.386307716E0,2.219015543E1
6.432690109E0,-1.887523890E0,2.038064957E1,6.091785431E0,2.135517438E1
6.437431984E0,-1.050775051E0,1.889534950E1,5.932106018E0,1.983250470E1
6.442173859E0,-3.263176978E-1,1.710339737E1,4.799207211E0,1.776696583E1
6.446915734E0,1.806528568E-1,1.535167980E1,3.084658146E0,1.565956015E1
6.451657609E0,3.195226789E-1,1.359209824E1,1.515399218E0,1.368004620E1
6.456399484E0,5.315480828E-1,1.224097919E1,1.078765392E0,1.229991259E1
6.461141306E0,7.886989117E-1,1.113818645E1,1.073229551E0,1.121753383E1
6.465883181E0,8.788281083E-1,1.004522133E1,1.162396073E0,1.015036822E1
6.470625056E0,7.933012247E-1,9.030217171E0,1.393702626E0,9.171507836E0
6.475366931E0,6.903806925E-1,7.914854050E0,1.436734557E0,8.073769028E0
6.480108806E0,5.165025592E-1,6.709532738E0,1.460376382E0,6.886022337E0
6.484850681E0,4.331441820E-1,5.539167404E0,1.353002667E0,5.718444337E0
6.489592556E0,3.126018941E-1,4.342113495E0,1.247775435E0,4.528643625E0
6.494334431E0,3.457894325E-1,2.994482040E0,1.162643194E0,3.230825315E0
6.499076306E0,4.413920939E-1,1.568486214E0,9.359041452E-1,1.879066937E0
6.503818181E0,5.422557592E-1,-1.932239532E-2,1.731817722E-1,5.695670194E-1
6.508560056E0,6.486108303E-1,-1.787868500E0,-1.188278675E0,2.242582438E0
6.513301931E0,4.111984372E-1,-3.739369392E0,-3.379919529E0,5.057254555E0
6.518043754E0,1.628720760E-1,-5.653437138E0,-5.700882912E0,8.030438640E0
6.522785629E0,-1.127116680E-1,-7.541481018E0,-8.026835442E0,1.101438728E1
6.527527504E0,-8.930015564E-2,-9.172915459E0,-9.259938240E0,1.303444701E1
6.532269379E0,-1.194550991E-1,-1.053484631E1,-9.213811874E0,1.399612752E1
6.537011254E0,8.149719238E-2,-1.147355175E1,-7.586812496E0,1.375531735E1
6.541753129E0,3.795170784E-1,-1.220447063E1,-4.522082329E0,1.302084349E1
6.546495004E0,4.704132676E-1,-1.289620781E1,-6.708798409E-1,1.292221128E1
6.551236879E0,6.315190792E-1,-1.350159836E1,4.426760197E0,1.422280494E1
6.555978754E0,7.710913420E-1,-1.425883865E1,1.419578743E1,2.013527855E1
6.560720629E0,1.669176817E-1,-1.482222748E1,1.898859024E1,2.408926832E1
6.565462504E0,-6.097861528E-1,-1.484092426E1,1.808466721E1,2.340256525E1
6.570204379E0,-1.688573956E0,-1.468329239E1,1.379310226E1,2.021633071E1
6.574946254E0,-2.513287067E0,-1.431073189E1,7.666958809E0,1.642850926E1
6.579688129E0,-2.540957928E0,-1.348089409E1,1.938471079E0,1.385455314E1
6.584430004E0,-1.919573426E0,-1.263860893E1,-1.977363825E0,1.293557751E1
6.589171879E0,-1.217936635E0,-1.195899200E1,-5.692165375E0,1.330043631E1
6.593913754E0,-5.646263361E-1,-1.147928905E1,-9.141845703E0,1.468557874E1
6.598655629E0,3.435695171E-2,-1.122304440E1,-1.090061283E1,1.564548708E1
6.603397504E0,6.477234364E-1,-1.112564373E1,-1.145561123E1,1.598219393E1
6.608139379E0,1.311477304E0,-1.123743248E1,-1.125896263E1,1.596133143E1
6.612881254E0,1.927979350E0,-1.117828369E1,-9.965050697E0,1.509878691E1
6.617623129E0,2.382157326E0,-1.120214844E1,-7.828789234E0,1.387273383E1
6.622365004E0,2.589250565E0,-1.117040443E1,-5.889893532E0,1.289081066E1
6.627106879E0,2.317790985E0,-1.129127884E1,-3.774264336E0,1.212889954E1
6.631848754E0,2.001062870E0,-1.129930115E1,-1.829528570E0,1.162005309E1
6.636590629E0,1.668046951E0,-1.129753590E1,-4.853647351E-1,1.143032269E1
6.641332504E0,1.536908865E0,-1.129084492E1,3.116352558E-1,1.139922736E1
6.646074379E0,1.471662760E0,-1.122191334E1,6.673202515E-1,1.133765613E1
6.650816254E0,1.808099508E0,-1.085397053E1,9.563479424E-1,1.104502157E1
6.655558129E0,2.315789223E0,-1.039990520E1,1.467389584E0,1.075519131E1
6.660300004E0,3.052145004E0,-9.708786964E0,2.384027958E0,1.045273757E1
6.665041879E0,3.643083096E0,-9.103451729E0,3.358601332E0,1.036460760E1
6.669783754E0,3.778273106E0,-8.770241737E0,4.430509567E0,1.052719824E1
6.674525629E0,3.775737762E0,-8.548752785E0,5.475392342E0,1.083131068E1
6.679267504E0,3.912789106E0,-7.996552467E0,6.412282467E0,1.097142363E1
6.684009379E0,3.825459480E0,-7.532571793E0,6.392613411E0,1.059430433E1
6.688751306E0,3.623425484E0,-7.601780891E0,5.542638302E0,1.008152391E1
6.693493181E0,3.492598057E0,-7.665844917E0,4.830286503E0,9.710565750E0
6.698235056E0,3.475354910E0,-7.650767326E0,4.597142696E0,9.578416017E0
6.702976931E0,3.544984818E0,-7.532753944E0,4.448424816E0,9.439162181E0
6.707718806E0,3.562819004E0,-7.474599838E0,4.089734077E0,9.235217746E0
6.712460681E0,3.569631338E0,-7.421329021E0,3.748162270E0,9.048044691E0
6.717202556E0,3.603578806E0,-7.416095734E0,3.483066082E0,8.950754464E0
6.721944431E0,3.525514126E0,-7.497204781E0,3.298892498E0,8.917399906E0
6.726686306E0,3.272488832E0,-7.621695995E0,3.118442059E0,8.861383294E0
6.731428181E0,2.871924877E0,-7.935567856E0,2.907774925E0,8.926160693E0
6.736170056E0,2.370437622E0,-8.340747833E0,2.647222042E0,9.066136635E0
6.740911931E0,1.931956053E0,-8.705817223E0,2.360074997E0,9.224622577E0
6.745653806E0,1.584138036E0,-8.987967491E0,2.138977051E0,9.373807965E0
6.750395734E0,1.321145654E0,-9.182691574E0,2.054863214E0,9.502089939E0
6.755137609E0,1.132475376E0,-9.326061249E0,2.064093351E0,9.618648567E0
6.759879484E0,9.408121109E-1,-9.449252129E0,2.113669634E0,9.728365358E0
6.764621359E0,7.646737099E-1,-9.516370773E0,2.203516960E0,9.798036822E0
6.769363234E0,5.821176767E-1,-9.642166138E0,2.302418947E0,9.930325364E0
6.774105109E0,3.594169021E-1,-9.797738075E0,2.403130054E0,1.009454734E1
6.778846984E0,1.757106185E-1,-9.963690758E0,2.414976597E0,1.025368810E1
6.783588911E0,7.453723252E-2,-1.011819553E1,2.415024757E0,1.040268144E1
6.788330786E0,1.116407290E-1,-1.022270870E1,2.549574375E0,1.053643993E1
6.793072661E0,2.711507082E-1,-1.033200550E1,2.754249334E0,1.069624933E1
6.797814536E0,4.633845985E-1,-1.042907333E1,2.938501120E0,1.084504886E1
6.802556411E0,5.772277117E-1,-1.048021984E1,3.069298744E0,1.093566617E1
6.807298286E0,5.874805450E-1,-1.050920868E1,3.106544018E0,1.097448022E1
6.812040161E0,5.262402296E-1,-1.050632191E1,3.101154804E0,1.096708211E1
6.816782088E0,3.965665698E-1,-1.052645779E1,3.029729843E0,1.096096900E1
6.821523963E0,1.868975461E-1,-1.054076481E1,3.002957344E0,1.096177022E1
6.826265838E0,1.509302855E-2,-1.051328850E1,2.935359955E0,1.091539284E1
6.831007713E0,-1.135569513E-1,-1.050382042E1,2.782056093E0,1.086659904E1
6.835749588E0,-2.200039029E-1,-1.050753021E1,2.508097649E0,1.080495936E1
6.840491463E0,-3.899916112E-1,-1.051241684E1,2.289596558E0,1.076593023E1
6.845233390E0,-6.236317158E-1,-1.048260593E1,2.056020975E0,1.070052176E1
6.849975265E0,-9.139814973E-1,-1.041819096E1,1.786555052E0,1.060970518E1
6.854717140E0,-1.127511978E0,-1.038143635E1,1.685096264E0,1.057757313E1
6.859459015E0,-1.322013140E0,-1.031499767E1,1.637212038E0,1.052745739E1
6.864200890E0,-1.512255788E0,-1.030506706E1,1.676750660E0,1.054954110E1
6.868942817E0,-1.653120875E0,-1.028710079E1,1.610358953E0,1.054279409E1
6.873684692E0,-1.809444904E0,-1.025164604E1,1.541443586E0,1.052361087E1
6.878426567E0,-1.950335026E0,-1.019165802E1,1.453713655E0,1.047792839E1
6.883168442E0,-2.049508095E0,-1.009774494E1,1.355115056E0,1.039236610E1
6.887910317E0,-2.147658348E0,-9.929459572E0,1.401952624E0,1.025534373E1
6.892652244E0,-2.251786709E0,-9.761208534E0,1.496988297E0,1.012880592E1
6.897394119E0,-2.397648335E0,-9.605138779E0,1.552570462E0,1.002087239E1
6.902135994E0,-2.618670464E0,-9.473371506E0,1.742109537E0,9.981840928E0
6.906877869E0,-2.830947161E0,-9.363694191E0,2.007255554E0,9.986095613E0
6.911619744E0,-2.891975880E0,-9.159606934E0,2.628592491E0,9.958484933E0
6.916361671E0,-1.137670517E0,-7.532097816E0,7.759380341E0,1.087358152E1
6.921103546E0,7.736375332E-1,-5.553097725E0,1.424890900E1,1.531230933E1
6.925845421E0,1.349572301E0,-5.905845642E0,1.242675495E1,1.382478198E1
6.930587296E0,9.249190092E-1,-5.325475693E0,1.796279526E1,1.875841624E1
6.935329223E0,-1.437988043E0,-6.134670258E0,1.598333168E1,1.718047963E1
6.940071098E0,-3.931417465E0,-7.806189537E0,8.035825729E0,1.187295808E1
6.944812973E0,-4.957635880E0,-7.447923183E0,-8.286341429E-1,8.985340717E0
6.949554900E0,-4.977892876E0,-3.831179619E0,-1.847356796E1,1.951230555E1
6.954296775E0,-4.335228920E0,2.177579880E0,-4.285940170E1,4.313310073E1
6.959038650E0,-2.769666910E0,7.286491394E0,-5.898177338E1,5.949465188E1
6.963780525E0,-6.764419675E-1,1.082870007E1,-6.193132782E1,6.287453924E1
6.968522452E0,-1.961868286E0,1.380450344E1,-5.036438751E1,5.225882482E1
6.973264327E0,-6.716580391E0,1.349411011E1,-2.748896790E1,3.135038781E1
6.978006202E0,-1.184078026E1,1.429336548E1,1.012655854E0,1.858843312E1
6.982748077E0,-1.576040649E1,1.775883865E1,2.060845184E1,3.144002307E1
6.987490004E0,-1.456557369E1,2.545038795E1,3.163179779E1,4.313292032E1
6.992231879E0,-8.541033745E0,3.977743912E1,3.272258377E1,5.221074036E1
6.996973754E0,-2.339423180E0,6.055525589E1,2.330251312E1,6.492625844E1
7.001715681E0,3.446650505E-2,6.284019852E1,-5.928523064E0,6.311924527E1
7.006457556E0,5.493574142E0,6.526586914E1,-3.315236664E1,7.340907604E1
7.011199431E0,4.116921425E0,6.310333252E1,-3.334080505E1,7.148838296E1
7.015941359E0,1.317679644E0,5.506592941E1,-1.877299309E1,5.819293884E1
7.020683234E0,7.394825220E-1,4.525717545E1,-7.952167988E0,4.595645482E1
7.025425109E0,3.098747253E0,3.553931046E1,-4.943240166E0,3.601500306E1
7.030167036E0,6.177442074E0,2.762163162E1,-4.307827950E0,2.862992675E1
7.034908911E0,8.682978630E0,2.191227722E1,-3.480870485E0,2.382558436E1
7.039650786E0,9.951732635E0,1.810338211E1,-3.465327263E0,2.094702650E1
7.044392713E0,1.049776268E1,1.585101318E1,-5.630263329E0,1.982819975E1
7.049134588E0,1.083554649E1,1.480668831E1,-9.813711166E0,2.080759509E1
7.053876463E0,1.109448051E1,1.458479595E1,-1.455712318E1,2.340328195E1
7.058618390E0,1.111507893E1,1.510744190E1,-1.783405876E1,2.588114047E1
7.063360265E0,1.091026306E1,1.620721817E1,-1.745833397E1,2.620116764E1
7.068102140E0,1.049789333E1,1.744750595E1,-1.457747269E1,2.504244274E1
7.072844067E0,1.023933983E1,1.894223785E1,-1.121836376E1,2.427970635E1
7.077585942E0,1.015594769E1,2.056336594E1,-8.831635475E0,2.457627061E1
7.082327817E0,9.613419533E0,2.202486801E1,-7.311332226E0,2.511908089E1
7.087069744E0,8.477184296E0,2.346156502E1,-6.086838722E0,2.567795343E1
7.091811619E0,6.892549515E0,2.422581863E1,-4.746353149E0,2.563055590E1
7.096553546E0,5.063059807E0,2.415117264E1,-3.667861938E0,2.494728293E1
7.101295421E0,3.530503988E0,2.382913017E1,-2.675185204E0,2.423733729E1
7.106037296E0,2.085318565E0,2.274313545E1,-1.449012041E0,2.288445760E1
7.110779223E0,9.224820733E-1,2.084101105E1,-2.101927400E-1,2.086247578E1
7.115521098E0,3.099525273E-1,1.848429680E1,7.902729511E-1,1.850377880E1
7.120262973E0,1.456308961E-1,1.612017059E1,1.488075733E0,1.618936310E1
7.125004900E0,4.809683561E-2,1.365493298E1,1.964666843E0,1.379563060E1
7.129746775E0,5.730341673E-1,1.116979694E1,2.135087729E0,1.138645386E1
7.134488702E0,1.681893826E0,9.100044250E0,2.330749512E0,9.543163285E0
7.139230577E0,2.597570896E0,6.945648193E0,2.553281069E0,7.842744902E0
7.143972504E0,3.114298582E0,4.812108040E0,2.495468616E0,6.251608038E0
7.148714379E0,2.953659058E0,2.634907722E0,2.513033152E0,4.688515347E0
7.153456306E0,2.431946278E0,2.203922272E-1,2.018020868E0,3.167861054E0
7.158198181E0,1.797714472E0,-2.184967995E0,1.427818537E0,3.169310372E0
7.162940056E0,1.115579128E0,-4.660171032E0,9.034704566E-1,4.876265959E0
7.167681984E0,2.999519110E-1,-7.350965023E0,5.622120500E-1,7.378532395E0
7.172423859E0,5.278110504E-3,-9.632717133E0,-1.468325257E-1,9.633837605E0
7.177165734E0,1.804336309E-1,-1.130954361E1,-8.738424778E-1,1.134468746E1
7.181907661E0,3.965030909E-1,-1.235094070E1,-1.124739408E0,1.240838385E1
7.186649536E0,1.338962317E0,-1.253537178E1,-9.577260017E-1,1.264300616E1
7.191391463E0,1.438162446E0,-1.272993469E1,6.175589561E-2,1.281106406E1
7.196133338E0,7.853129506E-1,-1.265323544E1,1.526751161E0,1.276918371E1
7.200875265E0,6.494683027E-1,-1.195664597E1,1.079142094E0,1.202280082E1
7.205617140E0,7.848281264E-1,-1.173108673E1,3.076128960E-1,1.176133397E1
7.210359067E0,9.642734528E-1,-1.165347290E1,5.876901150E-1,1.170805849E1
7.215100942E0,1.349656105E0,-1.172119236E1,4.387870789E0,1.258814252E1
7.219842869E0,1.922929406E0,-1.183439636E1,8.737950325E0,1.483584749E1
7.224584744E0,2.271675587E0,-1.188245964E1,1.034914398E1,1.592036866E1
7.229326671E0,2.581314802E0,-1.205764771E1,1.067208481E1,1.630777264E1
7.234068546E0,2.847505569E0,-1.248439789E1,1.008206940E1,1.629774837E1
7.238810473E0,3.040022135E0,-1.327694607E1,9.421317101E0,1.656140838E1
7.243552348E0,2.883633614E0,-1.442432785E1,8.026781082E0,1.675726085E1
7.248294275E0,2.797240019E0,-1.534583855E1,6.336126328E0,1.683644289E1
7.253036150E0,2.348910332E0,-1.604438591E1,3.893782616E0,1.667636777E1
7.257778077E0,1.671347380E0,-1.660182953E1,2.272179842E0,1.683974308E1
7.262519952E0,1.157646537E0,-1.681083870E1,9.043941498E-1,1.687490362E1
7.267261879E0,8.129141331E-1,-1.661291504E1,-5.498981476E-2,1.663288307E1
7.272003754E0,1.028347969E0,-1.562015820E1,-1.043778539E0,1.568873211E1
7.276745681E0,5.636600256E-1,-1.547834206E1,-2.135080099E0,1.563506804E1
7.281487556E0,1.676776409E-1,-1.522052765E1,-3.012658596E0,1.551672290E1
7.286229484E0,-2.289264202E-1,-1.500978088E1,-3.607935667E0,1.543901322E1
7.290971359E0,-7.243814468E-1,-1.478206062E1,-4.195962906E0,1.538311248E1
7.295713286E0,-1.088912249E0,-1.454997063E1,-4.917391300E0,1.539701634E1
7.300455161E0,-1.169075966E0,-1.422318649E1,-5.581814766E0,1.532391689E1
7.305197088E0,-1.151133537E0,-1.391937733E1,-5.617466927E0,1.505423888E1
7.309938963E0,-9.608428478E-1,-1.355993080E1,-5.571715355E0,1.469145855E1
7.314680890E0,-7.688789368E-1,-1.313327408E1,-5.141706467E0,1.412484365E1
7.319422765E0,-5.290889740E-1,-1.265156841E1,-3.956585407E0,1.326637428E1
7.324164692E0,-2.007251978E-1,-1.222963715E1,-2.508930206E0,1.248595395E1
7.328906619E0,1.128891706E-1,-1.192719460E1,-1.315251708E0,1.200002508E1
7.333648494E0,5.959898233E-1,-1.168429565E1,-4.023451805E-1,1.170640211E1
7.338390421E0,9.857191443E-1,-1.142194939E1,2.597244978E-1,1.146734611E1
7.343132296E0,1.277312040E0,-1.109722042E1,8.297861814E-1,1.120126655E1
7.347874223E0,1.434506893E0,-1.080837059E1,1.387395024E0,1.099106682E1
7.352616150E0,1.612587690E0,-1.054833794E1,1.882544041E0,1.083567461E1
7.357358025E0,1.732158065E0,-1.028376961E1,2.301177025E0,1.067949927E1
7.362099900E0,1.823838472E0,-1.007465553E1,2.770097733E0,1.060653159E1
7.366841827E0,1.880002141E0,-9.839775085E0,3.220028400E0,1.052255505E1
7.371583754E0,1.897790909E0,-9.641472816E0,3.691725731E0,1.049706851E1
7.376325629E0,1.939265966E0,-9.384125710E0,4.065714836E0,1.040925573E1
7.381067556E0,1.853525162E0,-9.165922165E0,4.323061943E0,1.030235649E1
7.385809484E0,1.662082791E0,-8.934259415E0,4.595519066E0,1.018343292E1
7.390551359E0,1.692808628E0,-8.743963242E0,5.044014931E0,1.023545704E1
7.395293286E0,1.790833592E0,-8.642373085E0,5.480670452E0,1.038919853E1
7.400035161E0,1.768208742E0,-8.552660942E0,5.473093510E0,1.030676108E1
7.404777088E0,1.460617065E0,-8.348382950E0,4.489962578E0,9.591072101E0
7.409518963E0,1.057463527E0,-8.245183945E0,3.576555490E0,9.049477143E0
7.414260890E0,1.301923037E0,-8.149163246E0,3.987011433E0,9.165158229E0
7.419002817E0,2.104688644E0,-8.408527374E0,5.387209892E0,1.020563949E1
7.423744692E0,1.575835586E0,-8.413152695E0,4.607814312E0,9.720923248E0
7.428486619E0,1.076929212E0,-8.441187859E0,3.733085632E0,9.292435490E0
7.433228546E0,1.168479443E0,-8.557463646E0,3.350285769E0,9.263905385E0
7.437970421E0,1.233586311E0,-8.718848228E0,3.444331408E0,9.455340738E0
7.442712348E0,1.147970080E0,-8.781908035E0,3.337783098E0,9.464699681E0
7.447454275E0,1.138470054E0,-8.919311523E0,2.912785530E0,9.451695703E0
7.452196150E0,9.817590714E-1,-9.263116837E0,2.263757706E0,9.586124522E0
7.456938077E0,1.144322038E0,-9.524107933E0,1.966207027E0,9.792041407E0
7.461679952E0,9.313688874E-1,-9.518551826E0,1.758512974E0,9.724332612E0
7.466421879E0,8.947193027E-1,-9.519451141E0,1.662103772E0,9.704795805E0
7.471163806E0,1.036076307E0,-9.600940704E0,1.700770855E0,9.805311725E0
7.475905681E0,1.045949936E0,-9.593122482E0,1.850669980E0,9.825832769E0
7.480647609E0,1.033547401E0,-9.570162773E0,2.064221382E0,9.844655690E0
7.485389536E0,1.081911206E0,-9.550984383E0,2.377976418E0,9.901848634E0
7.490131411E0,1.133133650E0,-9.509025574E0,2.718468904E0,9.954678921E0
7.494873338E0,1.237161875E0,-9.458381653E0,3.053004026E0,1.001560715E1
7.499615265E0,1.367496967E0,-9.413224220E0,3.274501085E0,1.005988049E1
7.504357192E0,1.514488697E0,-9.421255112E0,3.431208134E0,1.014036060E1
7.509099067E0,1.673235893E0,-9.389022827E0,3.592902184E0,1.019129109E1
7.513840994E0,1.867686868E0,-9.314077377E0,3.755045414E0,1.021472749E1
7.518582869E0,2.112060308E0,-9.227424622E0,3.937153816E0,1.025218728E1
7.523324796E0,2.247996330E0,-9.179231644E0,4.244776726E0,1.036001499E1
7.528066723E0,2.445183516E0,-9.147768974E0,4.477502823E0,1.047418881E1
7.532808650E0,2.688993931E0,-9.037301064E0,4.700331211E0,1.053549298E1
7.537550525E0,2.847581387E0,-8.972173691E0,4.885058403E0,1.060530132E1
7.542292452E0,2.937272072E0,-8.978611946E0,5.027364731E0,1.070128197E1
7.547034379E0,2.871400356E0,-9.058988571E0,5.039052486E0,1.075649868E1
7.551776254E0,2.723589420E0,-9.208526611E0,4.946770668E0,1.080210358E1
7.556518181E0,2.591328382E0,-9.393792152E0,4.853541374E0,1.088646764E1
7.561260109E0,2.404718161E0,-9.473793030E0,4.690032005E0,1.084120953E1
7.566002036E0,2.309473038E0,-9.446336746E0,4.465923786E0,1.070100084E1
7.570743911E0,2.219661713E0,-9.414376259E0,4.107122421E0,1.050836967E1
7.575485838E0,2.162089348E0,-9.358638763E0,3.628464222E0,1.026764347E1
7.580227765E0,1.851562858E0,-9.272448540E0,5.189747810E0,1.078610538E1
7.584969640E0,8.126807809E-1,-9.594492912E0,2.118437958E1,2.326999532E1
7.589711567E0,5.641517639E-1,-1.160753632E1,1.312838745E1,1.753304662E1
7.594453494E0,1.915539026E0,-1.342529106E1,6.509221077E0,1.504252934E1
7.599195421E0,2.886351347E0,-1.343295288E1,-3.608370543E0,1.420547729E1
7.603937296E0,3.760207176E0,-1.286694527E1,-2.907864380E1,3.201975896E1
7.608679223E0,4.367642403E0,-9.497461319E0,-4.304423141E1,4.429541658E1
7.613421150E0,3.753086090E0,-6.221662998E0,-4.844509125E1,4.898695348E1
7.618163077E0,4.149305344E0,-2.508360863E0,-4.172695541E1,4.200770664E1
7.622905004E0,3.438744545E0,-1.067261696E0,-2.352389526E1,2.379784990E1
7.627646879E0,1.759038448E0,-9.305419922E-1,-1.074933624E1,1.093198767E1
7.632388806E0,-1.751259327E0,-5.943069458E-1,-4.243664742E0,4.629125232E0
7.637130734E0,-5.174290657E0,3.316869736E-1,-5.249552727E-1,5.211418050E0
7.641872661E0,-7.736036777E0,5.650911331E-1,2.020053864E0,8.015373393E0
7.646614536E0,-9.349634171E0,-8.963317871E-1,9.254968643E0,1.318611066E1
7.651356463E0,-8.733338356E0,-2.958572388E0,1.648593140E1,1.888942253E1
7.656098390E0,-7.061332703E0,-5.205180168E0,1.766443062E1,1.972278959E1
7.660840317E0,-3.700111151E0,-3.847382069E0,1.579717255E1,1.667464638E1
7.665582244E0,4.545949936E0,6.384619713E0,1.676049805E1,1.850252211E1
7.670324119E0,1.612595558E1,3.066883469E1,1.960906982E1,3.981381021E1
7.675066046E0,2.620098877E1,6.436011505E1,2.833027840E0,6.954669128E1
7.679807973E0,2.162594604E1,6.932177734E1,-2.682995796E1,7.741470791E1
7.684549900E0,2.281230927E1,6.950633240E1,-3.909673452E0,7.325856430E1
7.689291775E0,1.441533470E1,6.939556885E1,2.044075775E1,7.376565209E1
7.694033702E0,3.993329048E0,6.927766418E1,1.997881508E1,7.221145673E1
7.698775629E0,-4.547762394E0,6.906705475E1,5.792558670E0,6.945857708E1
7.703517556E0,-4.604945660E0,6.105438232E1,-7.343122005E0,6.166655955E1
7.708259484E0,8.969068527E-2,4.748544312E1,-3.417716026E0,4.760836203E1
7.713001411E0,2.824920654E0,3.566893768E1,6.216076374E0,3.631656506E1
7.717743286E0,5.185198784E0,2.636083221E1,7.813325882E0,2.797906043E1
7.722485213E0,8.175249100E0,1.953155899E1,2.387374640E0,2.130765243E1
7.727227140E0,9.928419113E0,1.586157131E1,-7.281975746E0,2.007959465E1
7.731969067E0,8.517160416E0,1.477865791E1,-1.503400707E1,2.273702091E1
7.736710994E0,5.473287106E0,1.553040314E1,-1.663966560E1,2.341001420E1
7.741452921E0,3.941970348E0,1.755704498E1,-1.323377705E1,2.233655778E1
7.746194796E0,3.933335066E0,1.976287842E1,-7.605940342E0,2.153817115E1
7.750936723E0,3.996462584E0,2.144694519E1,-5.143034935E0,2.241414686E1
7.755678650E0,3.198256016E0,2.289670181E1,-3.529465675E0,2.338685364E1
7.760420577E0,1.944275260E0,2.427062988E1,-1.858322144E0,2.441919414E1
7.765162504E0,1.540242553E0,2.503083420E1,-8.155739307E-1,2.509143616E1
7.769904431E0,1.891791224E0,2.482640457E1,5.604816675E-1,2.490468586E1
7.774646359E0,2.324943542E0,2.373279572E1,2.239319086E0,2.395131531E1
7.779388234E0,2.415848494E0,2.225374222E1,3.843615294E0,2.271208368E1
7.784130161E0,2.388934851E0,2.055975342E1,4.852186203E0,2.125921403E1
7.788872088E0,2.603071690E0,1.865083694E1,4.969893456E0,1.947638421E1
7.793614015E0,2.704448938E0,1.673924828E1,4.795236588E0,1.762131581E1
7.798355942E0,2.868622780E0,1.476377487E1,4.308849335E0,1.564494256E1
7.803097869E0,3.087802172E0,1.266997433E1,3.881865740E0,1.360630932E1
7.807839744E0,3.814911366E0,1.080283546E1,3.547328949E0,1.199326250E1
7.812581671E0,4.991666317E0,9.065342903E0,3.144705057E0,1.081602258E1
7.817323598E0,5.777943611E0,7.004705429E0,2.548104048E0,9.430978993E0
7.822065525E0,6.815548897E0,5.209880829E0,2.216904640E0,8.860543505E0
7.826807452E0,8.470623016E0,3.750997543E0,1.515054584E0,9.387056367E0
7.831549379E0,9.022747993E0,1.348224640E0,3.549609184E-1,9.129824110E0
7.836291306E0,8.953895569E0,-1.464527130E0,-1.161865473E0,9.146967637E0
7.841033234E0,8.780220985E0,-3.978920460E0,-2.236744881E0,9.895813066E0
7.845775161E0,8.988559723E0,-6.096532822E0,-3.103956938E0,1.129586061E1
7.850517088E0,8.726857185E0,-8.008182526E0,-3.679215431E0,1.240264689E1
7.855258963E0,8.019757271E0,-1.003352928E1,-4.048438072E0,1.346766748E1
7.860000890E0,6.469155312E0,-1.169785881E1,-3.816488266E0,1.390163494E1
7.864742817E0,4.978821754E0,-1.313204765E1,-3.388520956E0,1.444719405E1
7.869484744E0,3.925475836E0,-1.434963989E1,-3.078184605E0,1.519199612E1
7.874226671E0,2.783638716E0,-1.430674171E1,-2.242647409E0,1.474655792E1
7.878968598E0,2.383385181E0,-1.469042301E1,1.253147006E0,1.493517427E1
