"Time (s)","Linear Acceleration x (m/s^2)","Linear Acceleration y (m/s^2)","Linear Acceleration z (m/s^2)","Absolute acceleration (m/s^2)"
3.638875000E-3,2.219339937E-2,-6.601038694E-2,-1.668888903E-1,1.808364450E-1
1.362887500E-2,-1.076555724E-1,1.834154606E-2,-3.864126617E-1,4.015481038E-1
2.361887500E-2,-5.477379262E-2,1.276879871E-1,-4.337295002E-1,4.554400836E-1
3.360887500E-2,2.907577685E-1,1.263615462E-1,-3.108414924E-1,4.439929658E-1
4.359887500E-2,7.862759659E-1,6.610862017E-3,2.218433619E-3,7.863068863E-1
5.358887500E-2,1.003307800E0,-8.094183683E-2,-7.780948341E-2,1.009570423E0
6.357887500E-2,7.572457096E-1,8.348215967E-2,-1.660784662E-2,7.620145381E-1
7.356887500E-2,2.562201659E-1,1.823708555E-1,1.709497815E-1,3.579549276E-1
8.355887500E-2,-1.147499992E-1,2.608913603E-1,2.199476945E-1,3.600122950E-1
9.354887500E-2,-5.964496180E-2,1.321526286E-1,4.311625725E-1,4.548879012E-1
1.035388750E-1,2.086739704E-1,-1.709103128E-1,4.419413298E-1,5.177521608E-1
1.135288750E-1,1.185382202E0,-2.648759454E-2,4.507858282E-1,1.268479570E0
1.235178750E-1,1.592400305E0,1.675800312E-1,1.770022345E-1,1.610947420E0
1.335078750E-1,1.183791321E0,1.411927164E-2,-1.041699010E-1,1.188449668E0
1.434978750E-1,1.442572713E0,2.889539024E-1,-6.429405373E-1,1.605578689E0
1.534878750E-1,1.433080051E0,5.506416535E-1,-6.985376179E-1,1.686677049E0
1.634778750E-1,1.451090206E0,5.840298396E-1,-5.637528652E-1,1.662699893E0
1.734678750E-1,1.493241760E0,5.353865603E-1,-4.830554420E-1,1.658237704E0
1.834578750E-1,1.410035297E0,6.499311760E-1,-8.359512788E-1,1.763356065E0
1.934478750E-1,1.687126807E0,7.519384843E-1,-1.487053944E0,2.371315622E0
2.034378750E-1,2.343296523E0,3.785800239E-1,-1.821013573E0,2.991730580E0
2.134278750E-1,2.810461864E0,-3.261693835E-1,-1.230657631E0,3.085384994E0
2.234178750E-1,2.654515161E0,-7.872270155E-1,-3.450506276E-1,2.790203765E0
2.334078750E-1,2.174345320E0,-8.545024475E-1,-2.945096344E-1,2.354716104E0
2.433978750E-1,1.958469627E0,-6.373064527E-1,-3.996051496E-1,2.097962599E0
2.533868750E-1,1.661832629E0,-1.993514621E-1,-5.631254590E-1,1.765938554E0
2.633768750E-1,1.504765161E0,1.903064042E-1,-9.442791349E-1,1.786672270E0
2.733668750E-1,1.846359061E0,1.989193529E-1,-1.122891108E0,2.170137122E0
2.833568750E-1,2.299071693E0,-1.665941906E-1,-1.140961928E0,2.572018350E0
2.933468750E-1,3.266233029E0,-1.258352968E-1,-1.354854246E0,3.538324850E0
3.033368750E-1,3.868011214E0,-3.160721192E-1,-1.995332521E0,4.363801577E0
3.133268750E-1,3.344446555E0,-1.291355823E0,-3.512729421E0,5.019182265E0
3.233168750E-1,3.432388678E0,-9.607182893E-1,-2.429778305E0,4.313710037E0
3.333068750E-1,3.696586347E0,1.380852136E-1,-3.511738318E-1,3.715796174E0
3.432968750E-1,3.165047254E0,2.253169003E-1,-3.722746789E-2,3.173275549E0
3.532868750E-1,2.336794712E0,-7.347812918E-1,-3.977802336E-2,2.449917420E0
3.632768750E-1,1.915889033E0,-1.476081498E0,-1.583893776E-1,2.423743916E0
3.732658750E-1,2.088608766E0,-9.590100253E-1,4.709698319E-2,2.298739858E0
3.832558750E-1,2.036170059E0,-3.753321880E-1,-2.155459106E-2,2.070586236E0
3.932458750E-1,2.215118247E0,-6.000748917E-1,-1.079993010E0,2.536380024E0
4.032358750E-1,2.412318811E0,-2.092474068E0,-3.317420139E0,4.604672209E0
4.132258750E-1,2.694419777E0,-2.392042421E0,-3.237123835E0,4.843628351E0
4.232158750E-1,1.873224239E0,-2.528928663E0,-1.779494834E0,3.615390864E0
4.332058750E-1,4.906711115E-1,-3.297910027E0,-7.105513072E-1,3.409083725E0
4.431958750E-1,8.324847570E-1,-2.256653797E0,-8.477462822E-1,2.550331545E0
4.531860000E-1,9.821003875E-1,-1.399526242E0,-1.134111915E0,2.051683384E0
4.631760000E-1,9.588990743E-1,-1.018221124E0,-3.819284320E-2,1.399185615E0
4.731660000E-1,1.281497709E0,-9.015989922E-1,2.374266593E0,2.844689610E0
4.831560000E-1,1.733421260E0,-9.868793169E-1,4.947719173E0,5.334660726E0
4.931460000E-1,1.790102560E0,-1.072904723E0,4.366218254E0,4.839364996E0
5.031350000E-1,1.522495965E0,-1.063566427E0,1.160512678E0,2.189967394E0
5.131250000E-1,1.429214749E0,-1.342265190E0,-8.997642821E-1,2.157291451E0
5.231150000E-1,1.929584966E0,-1.649794674E0,-1.543843857E0,2.971291716E0
5.331050000E-1,2.237086383E0,-1.809851385E0,-2.941103865E0,4.114633576E0
5.430950000E-1,2.463684846E0,-2.031866363E0,-2.996931911E0,4.379477687E0
5.530850000E-1,2.227168189E0,-2.620437588E0,-1.632479460E0,3.806830767E0
5.630750000E-1,5.526225806E-1,-3.942753541E0,7.924368846E-1,4.059390769E0
5.730650000E-1,2.068444863E-1,-4.104748019E0,1.821404167E0,4.495470396E0
5.830550000E-1,3.138799249E-1,-3.399969376E0,1.889252919E0,3.902254343E0
5.930450000E-1,-3.857050024E-1,-2.432213085E0,1.706471881E0,2.996076622E0
6.030350000E-1,-7.197433495E-1,-1.488253355E0,2.051074027E0,2.634356317E0
6.130250000E-1,-2.275392077E-1,-1.487818906E0,2.856575931E0,3.228839612E0
6.230140000E-1,-1.126564182E0,-2.842865672E0,4.519646269E-1,3.091165494E0
6.330040000E-1,-2.783377562E0,-3.786463898E0,-3.801894701E-1,4.714768662E0
6.429940000E-1,-2.139461562E0,-3.327627331E0,1.130889514E0,4.114524338E0
6.529840000E-1,-2.027341056E0,-3.047777251E0,3.090674472E-1,3.673497056E0
6.629740000E-1,-2.434291186E0,-3.205538053E0,-9.340523547E-1,4.132033590E0
6.729640000E-1,-2.120248927E0,-3.189360562E0,-4.911216760E-1,3.861175573E0
6.829540000E-1,-1.909395554E0,-2.982675522E0,8.861923099E-2,3.542597637E0
6.929440000E-1,-2.597365645E0,-2.217501280E0,1.154228675E0,3.604977677E0
7.029340000E-1,-2.301147162E0,-7.822241378E-1,1.442254332E0,2.826172398E0
7.129240000E-1,-1.334693339E0,-1.404538768E0,2.603303785E0,3.245200464E0
7.229140000E-1,-2.091317489E0,-2.554443281E0,1.989280652E0,3.854351675E0
7.329040000E-1,-2.796212200E0,-2.832997618E0,6.711135918E-1,4.036715450E0
7.428940000E-1,-3.441368247E0,-2.180397481E0,-9.264913201E-3,4.073970352E0
7.528830000E-1,-4.089464859E0,-1.713414865E0,-7.506222761E-1,4.496993122E0
7.628730000E-1,-4.497512219E0,-1.617845341E0,-9.500023896E-1,4.873145211E0
7.728630000E-1,-4.309012604E0,-1.683133889E0,-8.417271584E-1,4.702024449E0
7.828530000E-1,-4.088909082E0,-1.645562605E0,-4.807118779E-1,4.433749843E0
7.928430000E-1,-4.203413059E0,-1.747091904E0,-2.116048872E-1,4.556949428E0
8.028330000E-1,-4.024882362E0,-1.959178602E0,-3.144807994E-2,4.476499504E0
8.128230000E-1,-3.859868090E0,-2.012594963E0,-1.458529472E-2,4.353083147E0
8.228130000E-1,-3.652655046E0,-1.704330046E0,-4.168526816E-1,4.052208774E0
8.328030000E-1,-4.905645533E0,-1.537496120E0,2.790221143E-1,5.148505196E0
8.427930000E-1,-5.828524443E0,-1.797358662E0,1.264203107E0,6.228997097E0
8.527830000E-1,-5.976847254E0,-2.583705087E0,1.299954738E0,6.639888357E0
8.627730000E-1,-6.122312531E0,-2.375441299E0,1.509655772E0,6.738285586E0
8.727630000E-1,-6.245634402E0,-1.470539069E0,1.478738619E0,6.584611009E0
8.827520000E-1,-6.479869183E0,-1.041871503E0,1.552096033E0,6.744123587E0
8.927420000E-1,-7.044434811E0,-1.236109575E0,2.095704655E0,7.452785164E0
9.027320000E-1,-7.398697143E0,-1.341935992E0,2.545632112E0,7.938624217E0
9.127220000E-1,-7.126877629E0,-1.329903007E0,2.735438579E0,7.748783838E0
9.227120000E-1,-6.514306945E0,-1.194792565E0,2.803196699E0,7.191775579E0
9.327020000E-1,-5.816989056E0,-1.244558802E0,2.655465626E0,6.514429060E0
9.426920000E-1,-5.476926688E0,-1.007775219E0,2.504635237E0,6.106188214E0
9.526820000E-1,-5.046737677E0,-3.759455609E-1,2.614765497E0,5.696305368E0
9.626720000E-1,-4.739261549E0,5.198291659E-2,2.576187907E0,5.394445883E0
9.726620000E-1,-4.454041679E0,2.253844357E-1,2.412905872E0,5.070641002E0
9.826520000E-1,-3.947825123E0,3.137422961E-1,2.023069373E0,4.447085239E0
9.926420000E-1,-3.317749630E0,2.689637339E-1,1.505118186E0,3.653106192E0
1.002632000E0,-2.566297342E0,1.929247874E-1,1.285302785E0,2.876648270E0
1.012621000E0,-2.075396106E0,3.876820922E-2,1.155757722E0,2.375825726E0
1.022611000E0,-1.941522349E0,6.414921820E-2,1.500281516E0,2.454479330E0
1.032601000E0,-2.031938429E0,4.727222425E-1,1.766487118E0,2.733627048E0
1.042591000E0,-2.481805075E0,1.262728440E0,1.914905823E0,3.379453189E0
1.052581000E0,-3.011600820E0,1.717252977E0,2.652429167E0,4.365097682E0
1.062571000E0,-3.125608077E0,1.774356301E0,2.960275716E0,4.656285907E0
1.072561000E0,-2.937837026E0,1.667387338E0,2.829610326E0,4.406558921E0
1.082551000E0,-2.320192128E0,1.277332445E0,2.500522890E0,3.642455821E0
1.092541000E0,-1.601769884E0,7.110816497E-1,2.575752874E0,3.115414377E0
1.102531000E0,-1.105807005E0,5.404061025E-1,3.754187268E0,3.950793583E0
1.112521000E0,-1.710056224E-1,1.493791691E0,6.235830960E0,6.414533834E0
1.122511000E0,-7.913417011E-2,3.571429034E0,6.130602713E0,7.095467370E0
1.132501000E0,-3.655363476E-1,3.931175469E0,5.117041090E0,6.463115882E0
1.142490000E0,-1.833488023E-1,2.918129570E0,4.632157223E0,5.477771217E0
1.152480000E0,-4.301053959E-1,2.268643075E0,3.069185077E0,3.840784958E0
1.162470000E0,-1.528538185E-1,1.507635559E0,3.497619924E0,3.811781001E0
1.172460000E0,-6.808532989E-1,-5.560409725E-2,5.365876368E0,5.409184988E0
1.182450000E0,-1.091105059E-1,2.734754455E-1,4.302016411E0,4.312080602E0
1.192440000E0,8.732149994E-1,5.698561889E-1,3.420994209E0,3.576372728E0
1.202430000E0,9.889088854E-1,7.565168542E-1,2.239804899E0,2.562612831E0
1.212420000E0,6.021372047E-1,1.298212268E0,1.390436600E0,1.995304048E0
1.222410000E0,-2.016839164E-1,1.645499455E0,8.853818858E-1,1.879427025E0
1.232400000E0,-7.786418411E-1,1.859424518E0,5.169888809E-1,2.081110318E0
1.242390000E0,-9.456932840E-1,2.136978396E0,3.282661951E-1,2.359824389E0
1.252380000E0,-9.731749052E-1,2.389161791E0,-1.054136038E-1,2.581913144E0
1.262370000E0,-9.763692391E-1,2.458213314E0,-3.058444619E-1,2.662639748E0
1.272359000E0,-5.340437472E-1,2.426600343E0,-5.076429838E-1,2.535999477E0
1.282349000E0,-6.535462171E-2,9.527546740E-1,-1.778685579E0,2.018844988E0
1.292339000E0,-1.585370198E-1,-7.199015898E-1,-2.473198559E0,2.580717613E0
1.302329000E0,1.740675169E-1,-2.993780261E-1,-1.521582338E0,1.560493356E0
1.312319000E0,4.813275898E-1,2.077369541E-1,-7.121341485E-1,8.842883784E-1
1.322309000E0,-3.667519838E-1,-2.029480845E-1,-4.632368892E-1,6.247266267E-1
1.332299000E0,-4.944469875E-1,-7.020395154E-1,-1.971417993E-2,8.589097470E-1
1.342289000E0,4.225344211E-2,-7.819861561E-1,3.318072689E-1,8.505197031E-1
1.352279000E0,8.031741267E-1,-1.102095485E0,3.286825168E-1,1.402759899E0
1.362269000E0,9.958200020E-1,-1.372330989E0,1.765555072E-1,1.704735072E0
1.372259000E0,1.180053196E0,-1.494902662E0,6.298658708E-1,2.005988666E0
1.382249000E0,1.819206784E0,-1.847274588E0,1.442948982E0,2.967160004E0
1.392238000E0,1.747915192E0,-2.104139264E0,9.217410421E-1,2.886557830E0
1.402228000E0,2.044751433E0,-1.582905012E0,5.092100376E-1,2.635505940E0
1.412218000E0,1.839161284E0,-5.839117259E-1,1.505026531E-1,1.935489132E0
1.422208000E0,1.331073327E0,-1.419551933E-1,-2.572049832E-1,1.363107436E0
1.432198000E0,8.586849609E-1,-1.092628258E0,-2.852856517E-1,1.418648750E0
1.442188000E0,3.126590994E-1,-7.303125572E-1,-7.052999228E-2,7.975503893E-1
1.452178250E0,4.538392442E-1,-8.957115769E-1,-5.320647570E-1,1.136381184E0
1.462168250E0,9.883431673E-1,-1.037924632E0,-9.588006949E-1,1.724357426E0
1.472158250E0,1.920139666E0,-7.579318804E-1,-9.393253738E-1,2.267979107E0
1.482148250E0,2.242563323E0,-2.435163590E0,-1.354084167E0,3.576682248E0
1.492138250E0,2.526245084E0,-2.582991727E0,-6.900337198E-1,3.678302193E0
1.502128250E0,2.428421751E0,-2.714692073E0,-1.071508993E0,3.796698141E0
1.512117250E0,2.228008434E0,-6.576439458E-1,-1.532205559E0,2.782835068E0
1.522107250E0,2.021931212E0,1.856572831E-1,-6.597083053E-1,2.134921428E0
1.532097250E0,2.009110607E0,6.691495121E-1,7.524989399E-1,2.247340908E0
1.542087250E0,8.113856640E-1,3.323453296E0,3.422734925E-1,3.438144798E0
1.552077250E0,-5.014104366E-1,5.779233584E0,-2.019388551E-1,5.804457989E0
1.562067250E0,-2.326080859E-1,4.126567197E0,3.659322041E-1,4.149285448E0
1.572057250E0,-4.086145395E-1,2.885804408E0,3.665786138E-1,2.937552178E0
1.582047250E0,-1.878780556E-1,2.208056565E0,2.125085744E-1,2.226201215E0
1.592037250E0,-6.537464842E-1,2.211719261E0,1.766183648E-1,2.313067358E0
1.602027250E0,-1.378567921E0,2.610586492E0,8.847977489E-2,2.953547023E0
1.612017250E0,-1.667693439E0,2.853045967E0,2.193138564E-1,3.311973922E0
1.622007250E0,-1.590570419E0,3.206641130E0,2.610486504E-1,3.588956394E0
1.631996250E0,-1.840448549E0,2.948598826E0,4.937204710E-1,3.510732943E0
1.641986250E0,-2.234434817E0,1.746759197E0,6.246063003E-1,2.904134927E0
1.651976250E0,-2.370541625E0,7.754097927E-1,8.610402194E-1,2.638582612E0
1.661966250E0,-2.108631679E0,6.867893922E-1,1.020379185E0,2.441143361E0
1.671956250E0,-1.827881713E0,3.408090574E-1,1.200245093E0,2.213117858E0
1.681946250E0,-1.565515977E0,-3.839316881E-1,1.319084196E0,2.082841072E0
1.691936250E0,-1.835104194E0,-9.557963955E-1,8.847819614E-1,2.250331813E0
1.701926250E0,-2.222459134E0,-1.448830111E0,9.234411201E-1,2.809123848E0
1.711916250E0,-2.675348498E0,-2.276169026E0,5.190576258E-1,3.550754264E0
1.721906250E0,-3.022115868E0,-3.036264961E0,3.991095981E-1,4.302485062E0
1.731896250E0,-2.933836653E0,-3.915852256E0,4.840646714E-2,4.893223843E0
1.741886250E0,-2.371130147E0,-5.325799552E0,-2.294625762E-1,5.834299625E0
1.751876250E0,-1.375433814E0,-7.557754857E0,-2.525523537E-1,7.686043153E0
1.761865250E0,-2.874254403E-1,-8.766363807E0,-1.745630684E-1,8.772811411E0
1.771855250E0,-2.082515091E-2,-7.647617791E0,-6.059209380E-1,7.671612069E0
1.781845250E0,8.954952300E-2,-6.253711161E0,-5.350643787E-1,6.277198124E0
1.791835250E0,7.144005293E-1,-4.886485376E0,-3.587851524E-2,4.938562009E0
1.801825250E0,1.163078436E0,-3.938034253E0,3.923899779E-1,4.124904256E0
1.811815250E0,1.475260110E0,-3.264534997E0,9.428760955E-1,3.704402310E0
1.821805250E0,1.562893793E0,-3.716888464E0,6.852261391E-1,4.089918303E0
1.831795250E0,1.368598419E0,-4.455426884E0,2.098744038E-1,4.665612245E0
1.841785250E0,1.109641609E0,-4.545820745E0,-3.148643768E-1,4.689875300E0
1.851775250E0,1.220202225E0,-3.406030599E0,-1.155847769E0,3.798147177E0
1.861765250E0,9.931218043E-1,-1.924827379E-1,-2.819491135E0,2.995475051E0
1.871755250E0,4.477838677E-1,2.557579728E0,-4.561326392E0,5.248563890E0
1.881744250E0,3.552247828E-1,3.693865637E0,-3.156336949E0,4.871682556E0
1.891734250E0,8.417464542E-1,3.455997396E0,-8.805567634E-1,3.664401085E0
1.901724250E0,1.517523493E0,1.971216849E0,-2.620099327E-1,2.501444107E0
1.911714250E0,1.964672645E0,1.753373567E0,-1.071788782E-1,2.635478094E0
1.921704250E0,1.919827425E0,2.713316808E0,2.333758253E-1,3.332009862E0
1.931694250E0,1.561943621E0,3.800120071E0,7.619664592E-1,4.178656879E0
1.941684250E0,9.397162601E-1,3.341290812E0,8.533683801E-1,3.574287137E0
1.951674250E0,5.621820107E-1,2.766607747E0,6.207199484E-1,2.890581307E0
1.961664250E0,2.179537940E-1,2.596368987E0,1.107095439E0,2.830953211E0
1.971654250E0,-5.096658280E-1,-1.289870045E0,-2.376127177E-1,1.407118969E0
1.981644250E0,-5.026418602E-1,-1.337272838E0,-1.501426401E0,2.072493358E0
1.991634250E0,-1.318512631E0,-1.457562343E0,-1.742675502E0,2.626762541E0
2.001623250E0,-1.264679655E0,-1.217815391E0,-1.466789834E0,2.287785256E0
2.011613250E0,-1.059987931E0,-1.796576305E0,-1.346643586E0,2.482883360E0
2.021603250E0,-1.534475740E0,-1.001716919E0,-7.533295369E-1,1.981302091E0
2.031593250E0,-7.186646113E-1,3.746478299E0,1.627431559E0,4.147422326E0
2.041583250E0,1.117122245E-1,5.746985021E0,2.836408884E0,6.409799670E0
2.051573250E0,2.908542475E-1,5.369437907E0,4.638976831E0,7.101800171E0
2.061563250E0,-5.120760503E-1,6.119148018E0,5.328364726E0,8.130047048E0
2.071553250E0,5.920209369E-1,4.568707332E0,6.105829815E0,7.648838683E0
2.081543250E0,1.968637935E0,2.523860005E0,6.183891898E0,6.963183442E0
2.091533250E0,1.924501689E0,2.093355244E0,6.026628694E0,6.663789938E0
2.101523250E0,1.056257408E0,2.074930667E0,4.936780202E0,5.458279559E0
2.111513250E0,1.887402275E-1,1.782148885E0,1.967382245E0,2.661253543E0
2.121502250E0,-3.255908015E-1,1.628887516E0,4.250428766E-1,1.714626885E0
2.131492250E0,9.234785423E-1,1.740344217E0,9.594818956E-1,2.191395929E0
2.141482250E0,2.043394587E0,1.177549126E0,6.957777321E-1,2.458900167E0
2.151472250E0,1.679460084E0,8.063246065E-1,-2.892541569E-1,1.885315229E0
2.161462250E0,1.738806107E0,1.240414295E0,-2.537872857E-1,2.150925914E0
2.171452250E0,8.859613448E-1,3.078325152E-1,-1.776471823E0,2.008865476E0
2.181442250E0,7.111149788E-1,-5.528355289E-1,-2.264018512E0,2.436614753E0
2.191432250E0,2.545509320E-1,-1.733366150E-1,-2.525724682E0,2.544430570E0
2.201422250E0,-5.667305598E-1,2.431459379E-1,-2.275108926E0,2.357206842E0
2.211412250E0,-1.229321542E0,-1.963331294E-1,-2.423546927E0,2.724583979E0
2.221402250E0,-1.339956710E0,-1.916093978E0,-2.910108652E0,3.733046006E0
2.231392250E0,-4.014268497E-1,-2.021025771E0,-2.071117698E0,2.921509405E0
2.241381250E0,-5.392597559E-1,8.183874124E-1,2.593778963E0,2.772769076E0
2.251371250E0,1.680343890E0,2.015227672E0,1.028802976E0,2.818356564E0
2.261361250E0,2.220300342E0,1.182950199E0,-1.284670116E0,2.824797708E0
2.271351250E0,6.596776074E-1,7.227784199E-1,1.053933724E0,1.438179226E0
2.281341250E0,-1.242378375E-1,1.330363768E0,6.651450464E-1,1.492555100E0
2.291331250E0,9.263708675E-1,4.949188578E-1,-3.926522255E-2,1.051023034E0
2.301321250E0,2.377230547E0,-1.337583325E0,-4.686946803E-1,2.767675727E0
2.311311250E0,1.351228680E0,-3.036763728E0,-2.615240291E-1,3.334088737E0
2.321301250E0,2.943552679E-1,-3.172418547E0,9.162309185E-2,3.187362428E0
2.331291250E0,2.591828039E-1,-1.990754735E0,4.628173515E-1,2.060213592E0
2.341281250E0,-2.030814010E-1,-1.306224707E0,8.485410650E-1,1.570823663E0
2.351271250E0,-1.510598928E-2,-1.231589677E0,1.260169990E0,1.762120804E0
2.361260250E0,8.511002451E-1,-1.518110261E0,1.664280273E0,2.408082063E0
2.371250250E0,1.800555920E0,-7.004104811E-1,2.577720462E0,3.221369157E0
2.381240250E0,1.376326099E0,3.920783213E0,1.579072016E0,4.445253982E0
2.391230250E0,2.013601269E-1,5.094839796E0,7.732849876E-1,5.157122078E0
2.401220250E0,-1.859701237E0,2.292540645E0,3.103358544E-2,2.952150806E0
2.411210250E0,-8.250486336E-1,-2.569522666E0,-5.583283301E-1,2.755881438E0
2.421200250E0,1.222585915E0,-6.167817317E0,-4.509408525E-1,6.303969736E0
2.431190250E0,9.381908678E-2,-8.140786577E0,1.596493356E0,8.296384703E0
2.441180250E0,-8.510063242E-1,-7.217270320E0,3.094857570E0,7.898819280E0
2.451169542E0,-2.866975204E0,-3.830812690E0,1.360843549E0,4.974592230E0
2.461159542E0,-2.838218890E0,-2.368163270E-1,1.259817330E-1,2.850866506E0
2.471149542E0,-2.916968020E0,5.732253546E-1,-2.667145293E-2,2.972877580E0
2.481138542E0,-3.410405779E0,2.273783362E-1,2.615226038E-1,3.427967700E0
2.491128542E0,-2.565935399E0,1.856323155E0,1.634541992E-1,3.171226482E0
2.501118542E0,-1.131815713E0,3.566925509E0,2.345189559E-1,3.749528442E0
2.511108542E0,-1.231556641E0,4.123189260E0,7.046771944E-1,4.360503570E0
2.521098542E0,-1.323040715E0,4.337258749E0,1.025229743E0,4.649015618E0
2.531088542E0,-5.612777754E-1,3.820721565E0,1.321724507E0,4.081654284E0
2.541078542E0,6.483375905E-1,3.696665869E0,1.307523959E0,3.974330016E0
2.551068542E0,1.428164297E0,2.373804079E0,-1.028822857E0,2.955177750E0
2.561058542E0,1.442763917E0,2.734386081E0,-1.907541255E0,3.632787993E0
2.571048542E0,1.442129933E0,3.977023487E0,-2.004202162E0,4.681162341E0
2.581038542E0,6.803799668E-1,5.901680712E0,-5.146228051E-1,5.963018427E0
2.591028542E0,4.519151448E-1,5.818435657E0,6.623585558E-1,5.873426568E0
2.601017542E0,-1.180728257E-2,4.956353756E0,7.772089809E-1,5.016934898E0
2.611007542E0,-6.727989786E-1,3.387294366E0,-3.306487162E-2,3.453623442E0
2.620997542E0,-1.094938201E0,2.183882421E0,-1.003061779E0,2.640902313E0
2.630987542E0,-3.375854143E-1,3.255015146E0,-1.227714143E0,3.495192345E0
2.640977542E0,4.739132472E-1,3.411850333E0,-5.900104083E-1,3.494771630E0
2.650967542E0,7.708600011E-1,3.245336249E0,-7.976882690E-1,3.429684984E0
2.660957542E0,8.354558004E-1,3.765505723E0,-1.323140118E0,4.077710083E0
2.670947542E0,8.832678249E-1,2.235493455E0,-2.332674179E0,3.349471878E0
2.680937542E0,5.864937467E-1,-4.507905060E-1,-2.701040579E0,2.800501242E0
2.690927542E0,3.170698003E-1,-5.067732105E0,-3.067781453E0,5.932429939E0
2.700917542E0,4.210120619E-1,-1.079109262E1,-1.343314766E0,1.088252846E1
2.710907542E0,7.526875126E-1,-1.638287149E1,1.793151591E0,1.649789106E1
2.720896542E0,7.206220398E-1,-2.100284545E1,2.415922012E0,2.115361653E1
2.730886542E0,-1.257551900E-1,-2.046961681E1,9.688228957E-1,2.049291693E1
2.740876542E0,-1.562757261E0,-1.068947035E1,-1.667762729E0,1.093107585E1
2.750866542E0,-1.582024713E0,1.207657024E0,-3.164113162E0,3.738027525E0
2.760856542E0,-1.685238010E0,4.776754773E0,-1.086776292E0,5.180588386E0
2.770846542E0,-1.368013697E0,6.510726110E0,-1.157126409E0,6.752774058E0
2.780836542E0,-8.338282279E-1,4.736268652E0,1.922318193E-1,4.812947468E0
2.790826542E0,-5.659761959E-1,9.693467331E-1,1.203003809E0,1.645351120E0
2.800816542E0,-8.340406280E-2,-6.446356452E-1,1.430652287E0,1.571393432E0
2.810806542E0,4.678872164E-1,-7.733036256E-1,1.023397298E0,1.365378693E0
2.820796542E0,6.807594511E-1,-5.557819408E-1,-1.010000523E-1,8.846061307E-1
2.830786542E0,4.200367829E-1,-4.957292819E-1,-6.405694183E-1,9.124185441E-1
2.840775542E0,-9.197191481E-2,-5.327649611E-1,-1.344473684E0,1.449105525E0
2.850765542E0,-5.888303306E-1,-5.962230384E-1,-1.306652724E0,1.552270727E0
2.860755542E0,-7.906699292E-1,-4.913567340E-1,-3.534326112E-1,9.957434346E-1
2.870745542E0,-7.671296968E-1,2.164422888E-1,7.691977108E-1,1.107700480E0
2.880735542E0,-7.475444479E-1,8.235990357E-1,8.865338603E-1,1.422350294E0
2.890725542E0,-8.871718647E-1,1.035467632E0,8.714374459E-1,1.618230625E0
2.900715542E0,-1.236210293E0,1.174744216E0,1.075547299E0,2.016194895E0
2.910705542E0,-1.857127147E0,7.969000643E-1,7.686843252E-1,2.162139344E0
2.920695542E0,-2.650138228E0,3.036143339E-1,3.871383742E-1,2.695420266E0
2.930685542E0,-2.779036589E0,-1.424223858E-1,1.746680991E-1,2.788160225E0
2.940675542E0,-1.433269501E0,3.163484001E-1,9.485984731E-1,1.747620335E0
2.950665542E0,7.088488904E-1,8.250643480E-1,6.624450946E-1,1.273589978E0
2.960655542E0,2.393783868E0,6.608482200E-1,6.377360038E-1,2.563908889E0
2.970644542E0,2.759200787E0,4.175058156E-1,5.213669106E-1,2.838894775E0
2.980634542E0,2.327150314E0,-2.500731343E-1,-2.927993238E-1,2.358791344E0
2.990624542E0,1.832488734E0,-4.670270544E-1,-1.442468340E0,2.378412105E0
3.000614542E0,1.357948008E0,-5.678523481E-2,-1.694558179E0,2.172274103E0
3.010604542E0,7.606688158E-1,4.753283465E-1,-1.728990093E0,1.947809238E0
3.020594542E0,2.872671269E-1,1.276626686E0,-1.749143107E0,2.184444943E0
3.030584542E0,1.501090624E-1,5.133490477E0,-1.814691564E0,5.446867235E0
3.040574542E0,-8.339050457E-2,7.608832625E0,-1.586287626E0,7.772875679E0
3.050564542E0,2.348654766E-1,5.565144800E0,-8.012860608E-1,5.627437942E0
3.060554542E0,-3.425166636E-1,1.935997315E0,8.461973548E-1,2.140432954E0
3.070544542E0,-1.292888086E0,2.245523769E-1,1.047816367E0,1.679256535E0
3.080534542E0,-1.617397445E0,-9.210721207E-1,7.667067969E-1,2.013004634E0
3.090523542E0,-2.098417763E0,-2.359439809E0,5.852489841E-1,3.211359477E0
3.100513542E0,-2.668358737E0,-2.720025904E0,5.544563770E-1,3.850467652E0
3.110503542E0,-2.656580105E0,3.276253402E-2,9.323899913E-1,2.815642438E0
3.120493542E0,-1.867625530E0,1.555980923E0,8.249555898E-1,2.567032037E0
3.130483542E0,-1.191285478E0,1.820361024E0,1.470975856E0,2.626146476E0
3.140473542E0,-4.310041130E-1,3.576232522E0,5.604187828E0,6.661991055E0
3.150463542E0,-1.201952334E0,3.919262352E0,7.059458063E0,8.163409517E0
3.160453542E0,-3.934168951E0,6.696512032E-1,-1.996950153E0,4.462502435E0
3.170443542E0,-1.571367578E0,-6.210486789E0,-9.999312962E0,1.187542007E1
3.180433542E0,7.266052032E-1,-7.086041844E0,-9.370675299E0,1.177070515E1
3.190423542E0,2.834895040E0,-1.048222164E0,-3.918683478E0,4.948886722E0
3.200412542E0,3.198105073E0,2.614983598E0,-6.158192508E-1,4.176750965E0
3.210402542E0,2.946695850E0,1.026159450E0,-1.418482916E0,3.427552104E0
3.220392542E0,2.412260193E0,-6.838909274E-1,-1.823940397E0,3.100558758E0
3.230382542E0,1.712216917E0,-2.165823296E0,-5.380221927E-1,2.812818017E0
3.240372542E0,9.499171664E-1,-2.797272300E0,9.622390039E-1,3.106924338E0
3.250362542E0,2.586293650E-1,-2.315730702E0,1.602118378E0,2.827769639E0
3.260352542E0,-4.906077423E-1,-1.714388427E0,1.953868014E0,2.645264420E0
3.270342542E0,-1.487458279E0,-1.828690383E0,1.318024242E0,2.700708898E0
3.280332542E0,-2.348854740E0,-2.679683624E0,6.946151595E-1,3.630470098E0
3.290322542E0,-2.366864165E0,-2.642361431E0,7.114399378E-1,3.618047359E0
3.300312542E0,-1.846116255E0,-2.297409037E0,5.152696534E-1,2.991945241E0
3.310302542E0,-8.043711980E-1,-1.843752226E0,2.408492978E-1,2.025942664E0
3.320291542E0,1.471133877E-1,-1.004438213E0,2.007338170E-1,1.034810387E0
3.330281542E0,8.400417716E-1,3.899052036E-1,2.357946722E-1,9.556648854E-1
3.340271542E0,1.756096031E0,-1.535753649E-1,-4.122414943E-1,1.810359553E0
3.350261542E0,2.577295370E0,-1.852483288E0,-8.346514428E-1,3.281887991E0
3.360251542E0,2.713096953E0,-1.928200053E0,-5.947086096E-1,3.381202279E0
3.370241542E0,2.756373366E0,-1.915963585E0,-2.143471583E-1,3.363696671E0
3.380231542E0,2.690902969E0,-1.663565598E0,-7.481388174E-2,3.164491492E0
3.390221542E0,1.598784880E0,2.101933694E-1,-4.249874742E-1,1.667605678E0
3.400211542E0,7.710092513E-1,8.264776200E-1,-5.411843669E-1,1.253156431E0
3.410201542E0,-1.217310777E0,9.065160620E-1,-7.530336678E-1,1.694307116E0
3.420191542E0,-3.221518786E0,5.823429179E-1,-1.015082484E0,3.427491650E0
3.430181542E0,-4.465901002E0,-1.850503421E-1,-1.268352292E0,4.646206293E0
3.440170542E0,-3.775754723E0,1.625227743E-1,-1.625143543E0,4.113858155E0
3.450160750E0,-1.654981008E0,1.916119705E0,-1.845498204E0,3.133103970E0
3.460150750E0,1.633945942E-2,2.828810427E0,-2.127690679E0,3.539703806E0
3.470140750E0,1.258648399E0,1.724512880E0,-2.660648013E0,3.411332338E0
3.480130750E0,2.138928296E0,3.158075327E-1,-3.159684480E0,3.828623078E0
3.490120750E0,2.406335209E0,-2.057196647E-1,-3.246193451E0,4.046052600E0
3.500110750E0,2.565788634E0,-3.438098484E-1,-2.713572332E0,3.750326829E0
3.510100750E0,2.350559204E0,-3.611614609E-1,-1.881082605E0,3.032167201E0
3.520090750E0,1.712333569E0,-2.918976831E-1,-1.261150861E0,2.146576810E0
3.530080750E0,8.752990202E-1,2.049343836E-1,-9.659962785E-1,1.319581482E0
3.540070750E0,1.836801202E-1,1.167484898E0,-8.345818609E-1,1.446819358E0
3.550060750E0,-3.458856100E-1,2.191813000E0,-5.829755867E-1,2.294240967E0
3.560049750E0,-6.011626931E-1,2.735095348E0,-5.393313843E-1,2.851845278E0
3.570039750E0,-7.512444198E-1,2.627947460E0,-5.358961451E-1,2.785257745E0
3.580029750E0,-1.013575292E0,1.993240972E0,-6.169368730E-1,2.319688675E0
3.590019750E0,-1.178872862E0,1.153230556E0,-8.028496063E-1,1.834189039E0
3.600009750E0,-1.336484048E0,1.856865191E-1,-9.287384051E-1,1.638054981E0
3.609999750E0,-1.395979760E0,-7.189344603E-1,-9.488831594E-1,1.834667681E0
3.619989750E0,-1.225522460E0,-1.268242364E0,-9.255376393E-1,1.991723855E0
3.629979750E0,-7.705083641E-1,-1.362825170E0,-8.130032232E-1,1.764071944E0
3.639969750E0,-1.672416601E-1,-1.179367610E0,-6.481444862E-1,1.356085914E0
3.649959750E0,1.689979810E-1,-9.358334166E-1,-2.600648564E-1,9.858895631E-1
3.659949750E0,2.899712083E-1,-6.583970672E-1,1.894667441E-1,7.439540623E-1
3.669939750E0,4.635298713E-1,-3.554089701E-1,5.344337930E-1,7.917038315E-1
3.679928750E0,6.945970331E-1,-2.788963991E-1,8.204883170E-1,1.110607635E0
3.689918750E0,8.459956259E-1,-4.296949214E-1,1.011644322E0,1.387000562E0
3.699908750E0,8.923421189E-1,-5.680417979E-1,1.153025903E0,1.564741089E0
3.709898750E0,7.926071117E-1,-6.001938826E-1,1.284276599E0,1.624138268E0
3.719888750E0,4.982370065E-1,-6.475153989E-1,1.344970112E0,1.573677511E0
3.729878750E0,1.033622909E-1,-6.896393251E-1,1.396008119E0,1.560488651E0
3.739868750E0,-2.919407333E-1,-7.952850634E-1,1.437970662E0,1.668971944E0
3.749858750E0,-6.102957151E-1,-9.107985628E-1,1.479079512E0,1.841111372E0
3.759848750E0,-7.972112824E-1,-9.991213399E-1,1.479922680E0,1.955494930E0
3.769838750E0,-8.152272847E-1,-1.001532147E0,1.438303953E0,1.932971916E0
3.779828750E0,-6.242489623E-1,-8.657212079E-1,1.382864163E0,1.746846665E0
3.789818750E0,-3.420762952E-1,-6.385492784E-1,1.262219732E0,1.455321279E0
3.799807750E0,-6.956384953E-2,-3.837767369E-1,1.059376312E0,1.128894098E0
3.809797750E0,1.250481885E-1,-1.584437567E-1,8.317670113E-1,8.559076086E-1
3.819787750E0,2.985831520E-1,-1.268436491E-2,6.247024870E-1,6.925070317E-1
3.829777750E0,4.047568024E-1,1.042482537E-1,4.516482925E-1,6.153713900E-1
3.839767750E0,5.178448768E-1,2.225994068E-1,3.077255112E-1,6.421906279E-1
3.849757750E0,5.933735806E-1,3.506013894E-1,2.130824786E-1,7.213998081E-1
3.859747750E0,6.324135757E-1,4.533784837E-1,1.459844365E-1,7.917136072E-1
3.869737750E0,6.340397595E-1,5.447119921E-1,8.381165028E-2,8.400844980E-1
3.879727750E0,5.960619111E-1,5.337426156E-1,2.187677264E-2,8.004058812E-1
3.889717750E0,5.511072381E-1,4.672153348E-1,9.894219786E-4,7.225028276E-1
3.899707750E0,5.198443687E-1,4.487936819E-1,4.825670533E-3,6.867876117E-1
3.909696750E0,4.552062136E-1,4.496970767E-1,2.137796860E-2,6.402321261E-1
3.919686750E0,3.495184851E-1,4.287049878E-1,8.006767809E-2,5.588935239E-1
3.929676750E0,2.306035507E-1,4.317829621E-1,1.692996973E-1,5.179545457E-1
3.939666750E0,8.417143676E-2,3.698644567E-1,2.204067010E-1,4.387068052E-1
3.949656750E0,-4.584679367E-2,2.938038754E-1,2.622879678E-1,3.965067764E-1
3.959646750E0,-1.290875456E-1,2.405322325E-1,2.992447827E-1,4.050515884E-1
3.969636750E0,-1.718234652E-1,2.194413257E-1,3.940677999E-1,4.826667893E-1
3.979626750E0,-1.704369076E-1,2.470717585E-1,4.388831995E-1,5.317063627E-1
3.989616750E0,-1.943221440E-1,3.446161795E-1,4.866006454E-1,6.271376204E-1
3.999606750E0,-2.337284307E-1,4.272496158E-1,5.466036030E-1,7.320838150E-1
4.009596750E0,-2.814350226E-1,4.757312196E-1,5.888379685E-1,8.076236862E-1
4.019586750E0,-3.562110619E-1,4.567786396E-1,6.424341685E-1,8.650171715E-1
4.029576750E0,-4.301678149E-1,4.059938174E-1,6.515014458E-1,8.799599211E-1
4.039565750E0,-5.139576478E-1,3.272780156E-1,6.705405647E-1,9.060287038E-1
4.049555750E0,-5.702768961E-1,2.381863296E-1,7.004888338E-1,9.341483137E-1
4.059545750E0,-6.281900588E-1,1.763262963E-1,7.267568654E-1,9.766725419E-1
4.069535750E0,-6.959009622E-1,1.108912754E-1,7.377010989E-1,1.020185246E0
4.079525750E0,-7.162365550E-1,6.393462539E-2,7.683510339E-1,1.052352484E0
4.089515750E0,-7.264904516E-1,1.992497206E-2,7.877789927E-1,1.071812074E0
4.099505750E0,-6.904705068E-1,8.227617145E-3,7.883894420E-1,1.048033934E0
4.109495750E0,-6.252141915E-1,1.866957486E-2,8.575029463E-1,1.061391841E0
4.119485750E0,-5.419632161E-1,1.430112004E-2,8.565036571E-1,1.013670146E0
4.129475750E0,-4.745551253E-1,-2.926356018E-2,8.256180793E-1,9.527350816E-1
4.139465750E0,-4.086164398E-1,-2.302165747E-2,8.428942627E-1,9.369995356E-1
4.149454750E0,-3.473129153E-1,-6.911993623E-3,8.556955719E-1,9.235198691E-1
4.159444750E0,-2.416223728E-1,2.880163014E-2,8.458335849E-1,8.801393971E-1
4.169434750E0,-8.166926701E-2,5.957435668E-2,8.550944781E-1,8.610490925E-1
4.179424750E0,6.982109047E-2,8.542080402E-2,8.438181227E-1,8.509998371E-1
4.189414750E0,2.160467977E-1,1.152141219E-1,7.918463159E-1,8.288371979E-1
4.199404750E0,2.975937117E-1,1.200515234E-1,6.836406666E-1,7.552078830E-1
4.209394750E0,3.293765813E-1,1.048294669E-1,5.802700800E-1,6.754195105E-1
4.219384750E0,3.379666893E-1,5.560058892E-2,4.264164241E-1,5.469404678E-1
4.229374750E0,3.172815792E-1,2.053834498E-2,2.920778139E-1,4.317393583E-1
4.239364750E0,2.871467473E-1,5.684838474E-2,2.173194076E-1,3.645719659E-1
4.249354750E0,2.789423729E-1,1.123372918E-1,1.599043912E-1,3.405846867E-1
4.259344750E0,2.807576044E-1,1.764210212E-1,1.417078195E-1,3.605971648E-1
4.269333750E0,3.224325376E-1,2.176953471E-1,1.431894674E-1,4.145566657E-1
4.279323750E0,3.565271405E-1,2.478441757E-1,1.527052993E-1,4.602795300E-1
4.289313750E0,3.657649738E-1,2.337751901E-1,1.372153672E-1,4.552613673E-1
4.299303750E0,3.666263783E-1,1.702375907E-1,1.478111432E-1,4.303996661E-1
4.309293750E0,3.278363516E-1,1.216951758E-1,1.510804311E-1,3.809352779E-1
4.319283750E0,2.808928944E-1,4.876110077E-2,1.634285080E-1,3.286142728E-1
4.329273750E0,2.208102685E-1,9.349113107E-3,1.744890646E-1,2.815866017E-1
4.339263750E0,1.721426135E-1,-2.006238163E-2,2.119598132E-1,2.737928797E-1
4.349253750E0,1.217524054E-1,-8.720303535E-2,2.725533031E-1,3.109876535E-1
4.359243750E0,9.347410105E-2,-1.371136987E-1,3.214705610E-1,3.617746475E-1
4.369233750E0,7.066107955E-2,-1.633372915E-1,3.753719491E-1,4.154228678E-1
4.379223750E0,5.923324473E-2,-1.705159181E-1,4.247493464E-1,4.615151816E-1
4.389212750E0,2.585825142E-2,-1.119829506E-1,4.454040509E-1,4.599930423E-1
4.399202750E0,-3.193029251E-2,-8.474778950E-2,4.320326016E-1,4.414225870E-1
4.409192750E0,-6.917661767E-2,-1.034746671E-1,3.804355282E-1,4.002794053E-1
4.419182750E0,-1.193976586E-1,-9.154283881E-2,3.591108423E-1,3.893539383E-1
4.429172750E0,-1.362908858E-1,-8.276909173E-2,3.448014997E-1,3.798868282E-1
4.439162750E0,-1.344939999E-1,-4.842722476E-2,3.192094062E-1,3.497548815E-1
4.449152875E0,-1.742472823E-1,-1.547231734E-2,3.055410645E-1,3.520750631E-1
4.459142875E0,-1.867855399E-1,3.825190008E-2,2.751723075E-1,3.347713318E-1
4.469132875E0,-2.179298935E-1,5.870662987E-2,2.595900625E-1,3.439867838E-1
4.479122875E0,-2.483351591E-1,4.607430518E-2,2.596152786E-1,3.622061371E-1
4.489112875E0,-2.549973304E-1,2.014131904E-2,2.601117072E-1,3.648114739E-1
4.499101875E0,-2.376351564E-1,-1.161023140E-2,3.132066911E-1,3.933239078E-1
4.509091875E0,-2.115047171E-1,-4.586848319E-2,3.725869203E-1,4.308818588E-1
4.519081875E0,-1.950794864E-1,-4.329103053E-2,4.187810934E-1,4.640126329E-1
4.529071875E0,-1.785914346E-1,-4.374009669E-2,4.477902997E-1,4.840705001E-1
4.539061875E0,-1.529566564E-1,-5.903524339E-2,4.304953687E-1,4.606594850E-1
4.549051875E0,-1.441856868E-1,-7.298494577E-2,3.889556158E-1,4.211921006E-1
4.559041875E0,-1.292192998E-1,-6.703657329E-2,3.427123260E-1,3.723483155E-1
4.569031875E0,-1.047776460E-1,-2.203113914E-2,3.113028377E-1,3.292008247E-1
4.579021875E0,-9.679016668E-2,1.656808555E-2,2.779450572E-1,2.947817712E-1
4.589011875E0,-4.560572393E-2,5.162857533E-2,2.261914245E-1,2.364486252E-1
4.599001875E0,1.206587568E-2,7.826264262E-2,1.691448192E-1,1.867634772E-1
4.608991875E0,3.920960091E-2,1.200930387E-1,1.092324203E-1,1.670073423E-1
4.618980875E0,6.056940660E-2,1.771098232E-1,6.515139442E-2,1.981949714E-1
4.628970875E0,6.207784206E-2,2.100471890E-1,5.777451061E-2,2.265201407E-1
4.638960875E0,3.737350211E-2,2.145518839E-1,3.308822393E-2,2.202819106E-1
4.648950875E0,5.052319575E-2,1.632197624E-1,3.325896263E-2,1.740673512E-1
4.658940875E0,6.397621371E-2,1.635548079E-1,2.287540399E-2,1.771056612E-1
4.668930875E0,6.772362113E-2,2.022388172E-1,5.170276187E-2,2.194543315E-1
4.678920875E0,8.367928393E-2,1.637290549E-1,8.766902190E-2,2.037039111E-1
4.688910875E0,8.427244741E-2,1.537139440E-1,1.105030203E-1,2.072214744E-1
4.698900875E0,8.027474262E-2,1.073946404E-1,1.346052432E-1,1.899900382E-1
4.708890875E0,9.292563222E-2,3.433777392E-2,1.460471479E-1,1.764766989E-1
4.718880875E0,1.058166597E-1,2.463431954E-2,1.438836781E-1,1.802956682E-1
4.728870875E0,1.197380396E-1,3.737540245E-2,1.600850701E-1,2.033748965E-1
4.738859875E0,1.045885251E-1,4.473763168E-2,1.623309857E-1,1.982209983E-1
4.748849875E0,8.174301501E-2,6.389954209E-2,1.550027434E-1,1.865232491E-1
4.758839875E0,5.776891921E-2,9.602648377E-2,1.572006387E-1,1.930553662E-1
4.768829875E0,2.546659760E-2,1.296047044E-1,1.616193795E-1,2.087264977E-1
4.778819875E0,1.210702546E-2,1.365102661E-1,1.596038443E-1,2.103687713E-1
4.788809875E0,2.432883907E-2,8.084477305E-2,1.767993361E-1,1.959228802E-1
4.798799875E0,5.958787836E-2,2.627037048E-2,1.929739040E-1,2.036658421E-1
4.808789875E0,6.108001471E-2,-4.684555292E-2,2.040468494E-1,2.180834491E-1
4.818779875E0,1.045177373E-1,-1.771437371E-1,2.557221293E-1,3.281732293E-1
4.828769875E0,1.755581915E-1,-2.457631516E-1,2.930349666E-1,4.208202668E-1
4.838759875E0,2.412924071E-1,-2.630358267E-1,3.613234288E-1,5.079020496E-1
4.848749875E0,3.077173982E-1,-2.523289901E-1,4.450707597E-1,5.970325766E-1
4.858738875E0,3.274880037E-1,-2.221579421E-1,4.672906908E-1,6.123423336E-1
4.868728875E0,3.283355577E-1,-1.780290055E-1,4.898008630E-1,6.159573448E-1
4.878718875E0,2.847298373E-1,-1.388076371E-1,4.700401247E-1,5.668124550E-1
4.888708875E0,2.546386768E-1,-1.070508242E-1,4.725895107E-1,5.473952688E-1
4.898698875E0,2.057206149E-1,-5.538658082E-2,4.524300287E-1,5.000815690E-1
4.908688875E0,1.563294035E-1,-5.746702015E-2,4.485861057E-1,4.785089707E-1
4.918678875E0,8.686550483E-2,-5.914283216E-2,4.483487087E-1,4.604997884E-1
4.928668875E0,2.374243643E-2,-1.135704696E-1,4.699185026E-1,4.840303233E-1
4.938658875E0,3.130869694E-2,-1.601265854E-1,4.942698169E-1,5.205030353E-1
4.948648875E0,5.469185852E-2,-2.040742582E-1,5.482676474E-1,5.875669455E-1
4.958638875E0,8.832482368E-2,-2.659506637E-1,5.956044030E-1,6.582367620E-1
4.968628875E0,8.743663162E-2,-3.283059561E-1,6.186055952E-1,7.057640171E-1
4.978617875E0,5.433108531E-2,-3.305887091E-1,5.942448888E-1,6.821786785E-1
4.988607875E0,-1.183114652E-2,-3.313085014E-1,5.792210529E-1,6.673846921E-1
4.998597875E0,-3.157657251E-2,-3.253841025E-1,6.147376621E-1,6.962573427E-1
5.008587875E0,5.764839347E-2,-2.222520822E-1,6.984306139E-1,7.352038137E-1
5.018577875E0,2.584193768E-1,4.610880375E-2,8.064122417E-1,8.480609056E-1
5.028567875E0,3.936315976E-1,2.858054692E-1,8.573509187E-1,9.857389099E-1
5.038557875E0,3.725784783E-1,3.417007577E-1,7.541686124E-1,9.079341530E-1
5.048547875E0,2.276887868E-1,3.352284747E-1,5.301085711E-1,6.672596279E-1
5.058537875E0,8.719462998E-2,3.026208919E-1,2.409783751E-1,3.965512388E-1
5.068527875E0,-6.251879521E-2,2.655308336E-1,-1.181495704E-2,2.730472790E-1
5.078517875E0,-1.627243936E-1,2.436710179E-1,-9.542363584E-2,3.081565568E-1
5.088506875E0,-1.827730343E-1,2.232268131E-1,-2.163996041E-2,2.893172654E-1
5.098496875E0,-8.469026752E-2,2.002133417E-1,1.959143957E-1,2.926435956E-1
5.108486875E0,9.875453878E-2,2.339687330E-1,4.707745349E-1,5.349041874E-1
5.118476875E0,3.589726653E-1,2.090262651E-1,7.502521473E-1,8.575731097E-1
5.128466875E0,6.094404501E-1,1.020011687E-1,9.922928884E-1,1.168959827E0
5.138456875E0,8.075313257E-1,-7.339951336E-2,1.154802214E0,1.411050135E0
5.148446875E0,9.523139401E-1,-2.836706507E-1,1.193408382E0,1.552930921E0
5.158436875E0,9.930009131E-1,-4.292125261E-1,1.069875573E0,1.521482155E0
5.168426875E0,9.899355834E-1,-5.033283234E-1,8.786487439E-1,1.416098681E0
5.178416875E0,9.385704982E-1,-4.069486678E-1,6.642665023E-1,1.219742507E0
5.188406875E0,8.184774595E-1,-1.523410177E-1,4.804130852E-1,9.612023044E-1
5.198396875E0,6.918696725E-1,1.106398451E-1,3.307869297E-1,7.748192124E-1
5.208385875E0,5.870256240E-1,3.860074496E-1,2.376935555E-1,7.416866325E-1
5.218375875E0,4.570992132E-1,6.215075684E-1,2.094455105E-1,7.994240239E-1
5.228365875E0,2.674080091E-1,7.795917213E-1,1.438613856E-1,8.366399426E-1
5.238355875E0,1.415070042E-2,8.343614209E-1,6.881588101E-2,8.373140680E-1
5.248345875E0,-2.615340059E-1,8.623906338E-1,4.574803054E-2,9.023361479E-1
5.258335875E0,-4.931001545E-1,8.324172217E-1,1.162987074E-1,9.744698983E-1
5.268325875E0,-6.716910774E-1,7.806132299E-1,2.442305233E-1,1.058382949E0
5.278315875E0,-7.780401626E-1,6.878103161E-1,5.094942123E-1,1.156725498E0
5.288305875E0,-7.566605495E-1,5.642779452E-1,8.392439921E-1,1.263042068E0
5.298295875E0,-6.370189159E-1,4.133841133E-1,1.178709944E0,1.402154291E0
5.308285875E0,-4.121539688E-1,2.974741727E-1,1.474056900E0,1.559232350E0
5.318275875E0,-1.538181340E-1,1.696587163E-1,1.596032157E0,1.612377978E0
5.328264875E0,3.377044782E-2,6.858608544E-2,1.613464315E0,1.615274463E0
5.338254875E0,9.937664598E-2,1.607224166E-2,1.496353356E0,1.499735777E0
5.348244875E0,1.884225044E-2,2.828064322E-2,1.271812089E0,1.272266016E0
5.358234875E0,-1.257399872E-1,9.125924885E-2,1.082979183E0,1.094067048E0
5.368224875E0,-2.739043022E-1,1.573450649E-1,9.918269384E-1,1.040913883E0
5.378214875E0,-3.837370489E-1,2.418192047E-1,1.022341218E0,1.118441870E0
5.388204875E0,-4.471031787E-1,3.035915297E-1,1.119269927E0,1.242913609E0
5.398194875E0,-4.018937133E-1,3.518369061E-1,1.219182982E0,1.331057816E0
5.408184875E0,-2.907481571E-1,4.178899777E-1,1.350808557E0,1.443554738E0
5.418174875E0,-1.316270005E-1,5.173593020E-1,1.434161932E0,1.530296299E0
5.428164875E0,2.181819085E-2,5.722716737E-1,1.505355145E0,1.610610137E0
5.438153875E0,1.057122869E-1,6.614890748E-1,1.509844637E0,1.651778954E0
5.448143875E0,1.630687946E-1,7.332577997E-1,1.471620073E0,1.652248187E0
5.458134292E0,1.706654607E-1,7.878789800E-1,1.405793873E0,1.620535837E0
5.468124292E0,1.141154667E-1,8.202573520E-1,1.336170053E0,1.572003458E0
5.478114292E0,8.110044256E-2,8.832242632E-1,1.256841463E0,1.538282433E0
5.488104292E0,4.040561233E-2,1.029092998E0,1.235625864E0,1.608550990E0
5.498094292E0,-1.840257637E-2,1.114727225E0,1.273499596E0,1.692559205E0
5.508084292E0,6.069581609E-2,1.213730527E0,1.331668866E0,1.802822161E0
5.518074292E0,1.524846765E-1,1.353360282E0,1.426181506E0,1.972011490E0
5.528064292E0,2.521986703E-1,1.497809898E0,1.509375690E0,2.141320535E0
5.538054292E0,3.300150607E-1,1.616134154E0,1.571358515E0,2.278149935E0
5.548044292E0,3.430726973E-1,1.705097201E0,1.581246157E0,2.350615823E0
5.558033292E0,3.054049706E-1,1.789764884E0,1.578141870E0,2.405631372E0
5.568023292E0,2.092898284E-1,1.876311277E0,1.610913759E0,2.481811713E0
5.578013292E0,5.478453688E-2,1.919684168E0,1.647330219E0,2.530194755E0
5.588003292E0,-2.000035729E-1,1.940279231E0,1.714026484E0,2.596646243E0
5.597993292E0,-5.487168963E-1,1.855599269E0,1.756174384E0,2.613137453E0
5.607983292E0,-8.516480561E-1,1.751278510E0,1.858249812E0,2.691723090E0
5.617973292E0,-1.079116366E0,1.717684502E0,2.066889576E0,2.896025673E0
5.627963292E0,-1.220491077E0,1.705537496E0,2.278658186E0,3.096891950E0
5.637953292E0,-1.251030792E0,1.656751252E0,2.404354611E0,3.176605712E0
5.647943292E0,-1.172955699E0,1.550352393E0,2.377725806E0,3.071318548E0
5.657933292E0,-1.070486388E0,1.263633004E0,2.264993827E0,2.805870010E0
5.667923292E0,-9.102370839E-1,8.895234686E-1,2.072840288E0,2.432375466E0
5.677912292E0,-7.647219595E-1,3.316090482E-1,1.799713336E0,1.983363892E0
5.687902292E0,-6.841430886E-1,-3.123453963E-1,1.507161934E0,1.684383718E0
5.697892292E0,-6.737831381E-1,-9.208879334E-1,1.246766710E0,1.690102226E0
5.707882292E0,-5.783838778E-1,-1.575531088E0,1.001640905E0,1.954510328E0
5.717872292E0,-2.846969832E-1,-2.345002449E0,9.151032829E-1,2.533279076E0
5.727862292E0,2.273035284E-1,-3.121733127E0,1.094804592E0,3.315943562E0
5.737852292E0,8.155898121E-1,-3.636688639E0,1.395899945E0,3.979852718E0
5.747842292E0,1.407544383E0,-3.954174907E0,1.501396580E0,4.457675636E0
5.757832292E0,2.009201093E0,-4.197307397E0,1.291827693E0,4.829399259E0
5.767822292E0,2.727616467E0,-4.301265628E0,1.129885547E0,5.217031622E0
5.777812292E0,3.600797260E0,-3.929443524E0,1.290498036E0,5.483762622E0
5.787801292E0,4.002687794E0,-2.907996930E0,1.994953402E-1,4.951540579E0
5.797791292E0,3.752600334E0,-1.600464200E0,-2.635940019E0,4.857126178E0
5.807781292E0,3.388259742E0,-1.616556323E-1,-4.750918851E0,5.837607947E0
5.817771292E0,3.212833039E0,1.075952584E0,-5.519476876E0,6.476464706E0
5.827761292E0,3.269421808E0,1.491842229E0,-5.898440770E0,6.906975873E0
5.837751292E0,3.437704090E0,1.161254690E0,-6.272642691E0,7.246541809E0
5.847741292E0,3.327518573E0,3.530057645E-1,-6.270265213E0,7.107265210E0
5.857731292E0,2.838710348E0,-9.154476839E-1,-6.062014289E0,6.756059365E0
5.867721292E0,2.186189733E0,-2.337833762E0,-5.528045386E0,6.387814809E0
5.877711292E0,1.620702437E0,-3.662036319E0,-4.911783940E0,6.337413341E0
5.887701292E0,1.282175548E0,-4.602076807E0,-4.426881362E0,6.513091713E0
5.897691292E0,1.194649746E0,-5.078675753E0,-4.002877536E0,6.575953466E0
5.907680292E0,1.275369243E0,-5.075756823E0,-3.678818997E0,6.397154309E0
5.917670292E0,1.321203081E0,-4.818170017E0,-3.289285676E0,5.981616851E0
5.927660292E0,1.263311846E0,-4.543397074E0,-2.741246034E0,5.454616725E0
5.937650292E0,1.051646293E0,-4.355071122E0,-2.051445326E0,4.927578749E0
5.947640292E0,6.284316219E-1,-4.284634978E0,-1.149471381E0,4.480436100E0
5.957630292E0,1.302210923E-1,-4.282559216E0,-5.175545260E-1,4.315684611E0
5.967620292E0,-1.998061928E-1,-4.258142998E0,-6.561768063E-1,4.313035161E0
5.977610292E0,-1.681531679E-1,-4.099509206E0,-1.110768660E0,4.250653860E0
5.987600292E0,3.373860242E-1,-3.617046087E0,-1.453178101E0,3.912617835E0
5.997590292E0,1.235592389E0,-2.678704215E0,-1.699182158E0,3.404315618E0
6.007580292E0,1.971682434E0,-1.632354915E0,-2.223782651E0,3.390770335E0
6.017570292E0,2.441594650E0,-7.434494966E-1,-2.894947114E0,3.859380829E0
6.027559292E0,2.720682254E0,-4.589654982E-2,-3.171741439E0,4.179014498E0
6.037549292E0,2.766841051E0,4.066773570E-1,-2.810202248E0,3.964597401E0
6.047539292E0,2.526649711E0,7.008671486E-1,-2.083787445E0,3.349230305E0
6.057529292E0,1.922721797E0,9.334027290E-1,-1.284371324E0,2.493533529E0
6.067519292E0,9.531143508E-1,1.049766414E0,-6.874536359E-1,1.575762987E0
6.077509292E0,-1.922131813E-1,1.156611416E0,1.663883914E-2,1.172592310E0
6.087499292E0,-1.409167863E0,1.280018656E0,1.004564513E0,2.152522168E0
6.097489292E0,-2.722492552E0,1.444272791E0,2.200710708E0,3.786953552E0
6.107479292E0,-3.816681724E0,1.590514578E0,2.889415648E0,5.044355142E0
6.117469292E0,-4.420394461E0,1.934172399E0,2.732505031E0,5.545042273E0
6.127459292E0,-4.492739137E0,2.638147343E0,2.299072570E0,5.694757329E0
6.137449292E0,-4.232862853E0,3.861690082E0,1.753302231E0,5.991981887E0
6.147438292E0,-3.725030127E0,5.151512765E0,9.655138832E-1,6.430097221E0
6.157428292E0,-3.122989402E0,6.093854132E0,-5.122975867E-2,6.847681759E0
6.167418292E0,-2.593628397E0,6.887510161E0,-1.128824862E0,7.445733681E0
6.177408292E0,-2.256202539E0,7.714545021E0,-2.084179793E0,8.303520951E0
6.187398292E0,-2.062085065E0,8.757814009E0,-2.704696258E0,9.395045656E0
6.197388292E0,-1.909656924E0,9.985168548E0,-2.687719452E0,1.051542754E1
6.207378292E0,-1.637073325E0,1.121413399E1,-2.289462671E0,1.156193970E1
6.217368292E0,-1.187065323E0,1.208858159E1,-2.324797980E0,1.236719914E1
6.227358292E0,-4.995758727E-1,1.222572335E1,-3.428246511E0,1.270711461E1
6.237348292E0,5.123885840E-2,1.209246765E1,-4.627963600E0,1.294791282E1
6.247338292E0,8.659251295E-2,1.238530556E1,-5.148951684E0,1.341323956E1
6.257327292E0,-2.012733688E-1,1.291975978E1,-4.921262861E0,1.382676867E1
6.267317292E0,-3.490880569E-1,1.325250378E1,-3.876353729E0,1.381219885E1
6.277307292E0,-1.105480073E-1,1.262181140E1,-2.351109281E0,1.283939480E1
6.287297292E0,1.344697705E-1,9.829656000E0,-6.971062195E-1,9.855261350E0
6.297287292E0,1.831986020E-1,6.549935199E0,1.311845051E0,6.682525741E0
6.307277292E0,2.890163945E-1,4.024923293E0,3.457479665E0,5.313916035E0
6.317267292E0,4.031462234E-1,2.356868203E0,3.640726726E0,4.355714143E0
6.327257292E0,-6.927859677E-2,8.306829375E-1,2.407140809E0,2.547383077E0
6.337247292E0,-1.096754200E0,-9.679843318E-1,1.375361016E0,2.007854917E0
6.347237292E0,-2.122564863E0,-3.039576824E0,2.592268773E-1,3.716383651E0
6.357227292E0,-2.793233921E0,-4.946669598E0,-1.255829895E0,5.817972548E0
6.367217292E0,-3.241666537E0,-6.112632465E0,-2.981412231E0,7.534022596E0
6.377206292E0,-3.439267927E0,-6.265996161E0,-4.417525817E0,8.402726112E0
6.387196292E0,-3.179524375E0,-5.743749756E0,-3.527926919E0,7.452939344E0
6.397186292E0,-1.810723643E0,-5.315669836E0,-1.722237875E0,5.873769591E0
6.407176292E0,5.458328303E-1,-6.417451910E0,-7.143718779E-1,6.480119573E0
6.417166292E0,2.353584115E0,-8.599383116E0,-6.535910945E-1,8.939570989E0
6.427156292E0,2.110458203E0,-1.102347500E1,-1.317569475E0,1.130075326E1
6.437146292E0,2.719250563E-1,-1.331929067E1,-2.105076134E0,1.348735678E1
6.447136292E0,-2.032376678E0,-1.583627260E1,-2.239568818E0,1.612246114E1
6.457126375E0,-4.276681302E0,-1.863913659E1,-2.078442944E0,1.923609474E1
6.467116375E0,-6.092889926E0,-2.153462165E1,-1.979518580E0,2.246734811E1
6.477106375E0,-6.935270804E0,-2.404344905E1,-2.907366600E0,2.519202659E1
6.487096375E0,-6.710384551E0,-2.551122648E1,-3.798409760E0,2.665107603E1
6.497085375E0,-5.743877810E0,-2.511471041E1,-4.589612882E0,2.616878594E1
6.507075375E0,-4.533288993E0,-2.358124068E1,-5.038873172E0,2.453601158E1
6.517065375E0,-3.662498249E0,-2.248965206E1,-5.093693157E0,2.334832014E1
6.527055375E0,-3.432843007E0,-2.232420626E1,-4.240534108E0,2.298122551E1
6.537045375E0,-3.693740799E0,-2.281177985E1,-2.881095060E0,2.328780216E1
6.547035375E0,-4.214782093E0,-2.344961986E1,-1.882790576E0,2.389966443E1
6.557025375E0,-5.006322892E0,-2.397584354E1,-9.507398696E-1,2.451139018E1
6.567015375E0,-6.017604686E0,-2.371222533E1,3.268628633E-1,2.446605885E1
6.577005375E0,-6.618517191E0,-2.174299536E1,1.718717705E0,2.279290696E1
6.586995375E0,-5.829707919E0,-1.764882876E1,2.781600008E0,1.879372102E1
6.596985375E0,-3.351110042E0,-1.238482843E1,2.946254092E0,1.316413031E1
6.606975375E0,-1.091435061E0,-7.317202744E0,2.228252263E0,7.726434795E0
6.616964375E0,3.226604329E-1,-3.287576535E0,1.138601407E0,3.494092499E0
6.626954375E0,9.790135693E-1,2.264398581E-1,1.289930856E-1,1.013105026E0
6.636944375E0,1.294909468E0,3.570832618E0,-4.805323684E-1,3.828648257E0
6.646934375E0,1.190059536E0,7.166449830E0,-7.104554129E-1,7.299245972E0
6.656924375E0,1.178955235E0,1.085261235E1,-5.651976391E-1,1.093108314E1
6.666914375E0,1.531553302E0,1.470233376E1,5.609070984E-1,1.479252819E1
6.676904375E0,3.191035204E0,2.007366207E1,4.178141393E0,2.075069831E1
6.686894375E0,5.987510237E0,2.607568861E1,7.616129365E0,2.781721125E1
6.696884375E0,6.835783353E0,2.809416148E1,5.213238897E0,2.938005622E1
6.706874375E0,6.951393916E0,2.610339973E1,-5.595915115E-1,2.701892851E1
6.716864375E0,1.060958335E1,2.403826140E1,-5.844368643E0,2.691761347E1
6.726854375E0,4.183047792E0,1.965470907E1,-8.443211587E0,2.179663505E1
6.736843375E0,1.429790407E0,1.688308909E1,-7.130236269E0,1.838268933E1
6.746833375E0,1.461276640E0,1.574087878E1,-4.428102261E0,1.641702421E1
6.756823375E0,6.767697497E-1,1.487634924E1,-1.103909949E0,1.493259526E1
6.766813375E0,-6.490362597E-1,1.317786290E1,1.602752216E0,1.329082892E1
6.776803375E0,-2.115920965E0,1.124683864E1,3.128661493E0,1.186410653E1
6.786793375E0,-3.086472078E0,9.492185703E0,2.309583524E0,1.024510007E1
6.796783375E0,-3.104745504E0,8.491563967E0,9.086584818E-1,9.086900654E0
6.806773375E0,-2.905697805E0,7.765191849E0,1.980604335E-1,8.293401722E0
6.816763375E0,-2.664874381E0,7.147280318E0,3.469843018E-1,7.635808374E0
6.826753375E0,-2.716978920E0,5.969929998E0,1.066471324E0,6.645253924E0
6.836743375E0,-3.193783980E0,3.407933868E0,2.719077485E0,5.404410396E0
6.846733375E0,-3.271239415E0,7.948377514E-1,4.318965735E0,5.475969264E0
6.856722375E0,-3.092363148E0,-1.071633831E0,4.752785867E0,5.770622358E0
6.866712375E0,-3.550860576E0,-1.677013024E0,4.674884582E0,6.105368897E0
6.876702375E0,-3.410570378E0,5.832357877E-1,3.609762796E0,5.000254166E0
6.886692375E0,-2.400099885E0,4.330205253E0,1.852061119E0,5.285951889E0
6.896682375E0,-1.299311837E0,7.085978694E0,-6.431937218E-6,7.204117246E0
6.906672375E0,-4.639378973E-1,8.892567186E0,-1.954073982E0,9.116545106E0
6.916662375E0,8.007630274E-2,1.010801621E1,-4.174043080E0,1.093622602E1
6.926652375E0,4.551454026E-1,1.131098961E1,-6.081621757E0,1.285036056E1
6.936642375E0,7.813207430E-1,1.255157465E1,-7.148426957E0,1.446556242E1
6.946632375E0,1.143235033E0,1.356037956E1,-7.118841800E0,1.535802034E1
6.956622375E0,1.545894476E0,1.386718180E1,-5.897626253E0,1.514828426E1
6.966612375E0,2.035877406E0,1.353268130E1,-3.748227786E0,1.418899121E1
6.976601375E0,2.410245535E0,1.306977712E1,-2.126553249E0,1.345921937E1
6.986591375E0,2.523924909E0,1.255932338E1,-1.104262317E0,1.285792347E1
6.996581375E0,2.517616348E0,1.210953918E1,-6.778520693E-1,1.238704221E1
7.006571375E0,2.427230673E0,1.178710500E1,-5.987461120E-1,1.204930661E1
7.016561375E0,2.317802225E0,1.151557316E1,-5.892706990E-1,1.176128702E1
7.026551375E0,2.255749964E0,1.123144877E1,-6.415619101E-1,1.147368516E1
7.036541375E0,2.231241360E0,1.090485956E1,-5.853630779E-1,1.114616750E1
7.046531375E0,2.388493454E0,1.060496405E1,-5.376454858E-1,1.088389756E1
7.056521375E0,2.554391826E0,1.033172366E1,-5.072025423E-1,1.065489023E1
7.066511375E0,2.689051448E0,1.001172660E1,-4.125894767E-1,1.037477216E1
7.076501375E0,2.776412358E0,9.681544858E0,-3.343168938E-1,1.007732823E1
7.086490375E0,2.713553621E0,9.408510293E0,-2.307013088E-1,9.794726248E0
7.096480375E0,2.506690825E0,9.354497808E0,3.058444619E-2,9.684578645E0
7.106470375E0,2.368310766E0,9.415279614E0,3.433011407E-1,9.714640589E0
7.116460375E0,2.277789874E0,9.592223961E0,5.345963091E-1,9.873443191E0
7.126450375E0,2.238223958E0,9.825347772E0,2.836881924E-1,1.008105075E1
7.136440375E0,2.191286604E0,1.014342929E1,-5.557398409E-1,1.039229241E1
7.146430375E0,1.963092581E0,1.025953628E1,-2.235865192E0,1.068227084E1
7.156420375E0,1.576203810E0,1.018195308E1,-3.316844773E0,1.082395705E1
7.166410375E0,1.318546983E0,9.482960551E0,-2.739953215E0,9.958536568E0
7.176400375E0,1.535944853E0,7.638092092E0,-1.042785423E0,7.860469377E0
7.186390375E0,2.023765630E0,3.526004355E0,5.644613723E0,6.956291981E0
7.196380375E0,2.213910651E0,1.839291385E0,4.498245460E0,5.340281396E0
7.206369375E0,2.419103774E0,-9.510839490E0,-6.265848227E0,1.164340950E1
7.216359375E0,7.936571985E-3,-5.247970539E1,-9.959270060E0,5.341635144E1
7.226349375E0,-8.319179279E0,-9.650134317E1,-4.355854064E0,9.695716293E1
7.236339375E0,-1.517884325E1,-8.655112226E1,-1.302044825E0,8.788167823E1
7.246329375E0,-1.526541829E1,-4.326894208E1,-8.604118191E0,4.668260055E1
7.256319375E0,-1.198801299E1,-2.180785736E1,-5.744022821E0,2.553994707E1
7.266309375E0,-7.178258282E0,-1.250863036E1,-5.754877592E0,1.552777645E1
7.276299375E0,-2.627872615E0,-5.620050740E0,-7.897206191E0,1.004273620E1
7.286289375E0,-3.871353775E-1,1.342275131E-1,-5.681589761E0,5.696345586E0
7.296279375E0,-3.469635442E-1,2.731727352E0,-3.976347549E0,4.836740416E0
7.306269375E0,-5.661068080E-1,2.162300348E-2,-5.927685034E0,5.954695151E0
7.316259375E0,-1.138481100E0,-6.124872442E0,-6.450098670E0,8.967383927E0
7.326249375E0,-2.199778077E0,-1.266778221E1,-3.704557271E0,1.338041383E1
7.336238375E0,-3.297118022E0,-1.763495215E1,1.344502920E0,1.799083691E1
7.346228375E0,-5.803834575E0,-1.733390474E1,2.044027548E0,1.839366190E1
7.356218375E0,-6.589421446E0,-1.204059817E1,-1.159232649E0,1.377462520E1
7.366208375E0,-5.109951925E0,-7.202586207E0,-1.173958277E0,8.908817811E0
7.376198375E0,-3.140603262E0,-4.789805174E0,-5.610629998E-2,5.727894060E0
7.386188375E0,-1.482472651E0,-3.135865263E0,-3.098088741E-2,3.468765764E0
7.396178375E0,-8.514700815E-1,-1.686659760E0,-2.679557470E-1,1.908303626E0
7.406168375E0,-2.824747489E-1,-9.524418479E-1,-6.547080588E-1,1.189781534E0
7.416158375E0,-2.569373269E-1,-2.407854170E-1,-6.470446980E-1,7.366554474E-1
7.426148375E0,-3.672658078E-1,5.811834151E-1,-1.459184361E-1,7.028161392E-1
7.436138375E0,-4.580622496E-1,1.462978034E0,4.002769947E-1,1.584407594E0
7.446128375E0,-3.750339800E-1,2.263109270E0,7.069973695E-1,2.400449819E0
7.456116667E0,-2.773666213E-1,3.166314054E0,7.826088846E-1,3.273370372E0
7.466106667E0,-1.948214049E-1,4.069282610E0,6.334990382E-1,4.122903997E0
7.476096667E0,-1.877068783E-1,5.094149240E0,3.566052739E-1,5.110064351E0
7.486086667E0,-3.689046362E-1,6.116160091E0,1.436227826E-1,6.128958508E0
7.496076667E0,-3.015017349E-1,6.956676291E0,-2.255800981E-2,6.963243294E0
7.506066667E0,-2.576882556E-2,7.660545400E0,-1.925628082E-1,7.663008566E0
7.516056667E0,3.755274119E-1,8.305656424E0,-2.251381948E-1,8.317189229E0
7.526046667E0,7.570605721E-1,8.947010027E0,-2.733567470E-1,8.983142715E0
7.536036667E0,1.175000763E0,9.390951689E0,-2.817837542E-1,9.468368524E0
7.546026667E0,1.681584670E0,9.506371048E0,-1.158853823E-1,9.654648980E0
7.556016667E0,2.232134083E0,9.352720254E0,1.108889365E-1,9.616033230E0
7.566006667E0,2.571483530E0,8.774882616E0,4.035093355E-1,9.152808981E0
7.575995667E0,2.514774601E0,7.902102064E0,6.139278958E-1,8.315300102E0
7.585985667E0,2.083222019E0,7.121225710E0,7.244419527E-1,7.454963832E0
7.595975667E0,1.636629229E0,6.885787572E0,8.237744522E-1,7.125393327E0
7.605965667E0,1.318372883E0,6.972950846E0,9.507882553E-1,7.159898663E0
7.615955667E0,1.139686577E0,7.095079300E0,9.837840933E-1,7.253059142E0
7.625945667E0,1.066117202E0,7.255282484E0,1.023566210E0,7.404283733E0
7.635935667E0,1.013838270E0,7.588055713E0,1.130829288E0,7.738554931E0
7.645925667E0,9.444126707E-1,8.081712157E0,1.333288545E0,8.245219526E0
7.655915667E0,9.196587756E-1,8.622412375E0,1.463378568E0,8.793932241E0
7.665905667E0,1.074697699E0,9.072729841E0,1.315957983E0,9.230446756E0
7.675895667E0,1.415213591E0,9.381134799E0,9.729380929E-1,9.537039800E0
7.685885667E0,1.834204453E0,9.615531548E0,4.305000830E-1,9.798371459E0
7.695874667E0,2.346779125E0,9.820619713E0,-1.404430942E-1,1.009810220E1
7.705864667E0,2.980511175E0,1.007883626E1,-7.236303592E-1,1.053518050E1
7.715854667E0,3.736973650E0,1.032502042E1,-1.348854418E0,1.106302069E1
7.725844667E0,4.641450788E0,1.051497306E1,-1.976267674E0,1.166247649E1
7.735834667E0,5.489705193E0,1.055288407E1,-2.408999054E0,1.213686540E1
7.745824667E0,5.965653344E0,1.042347116E1,-2.589002080E0,1.228579271E1
7.755814667E0,5.447929176E0,9.875287671E0,-2.516587822E0,1.155571085E1
7.765804667E0,3.112252452E0,8.473817668E0,-2.665438052E0,9.412558696E0
7.775794667E0,-2.802092452E-1,5.753746156E0,-3.310236250E0,6.643927760E0
7.785784667E0,-3.098203054E0,2.154112492E0,-3.811137979E0,5.363192658E0
7.795774667E0,-5.593575132E0,-2.053552662E0,-3.881634350E0,7.111416632E0
7.805764667E0,-9.007353292E0,-7.175089676E0,-2.074361587E0,1.170116666E1
7.815753667E0,-1.430413721E1,-1.415391522E1,2.281794340E0,2.025211699E1
7.825743667E0,-1.885970175E1,-2.128818490E1,5.965857997E0,2.905970798E1
7.835733667E0,-2.075676421E1,-3.196642158E1,7.368935984E0,3.882005392E1
7.845723667E0,-2.133849902E1,-4.447343576E1,4.801745773E0,4.956081912E1
7.855713667E0,-2.092171650E1,-4.256523202E1,-4.706239107E0,4.766199623E1
7.865703667E0,-1.708639093E1,-2.965334259E1,-9.517891817E0,3.552260895E1
7.875693667E0,-1.323378567E1,-2.285715658E1,-1.236510928E1,2.916296654E1
7.885683667E0,-1.046540856E1,-1.785066061E1,-1.107121869E1,2.346790881E1
7.895673667E0,-9.165129297E0,-1.352775327E1,-8.218431169E0,1.829049793E1
7.905663667E0,-1.020589041E1,-1.321392969E1,-6.071725345E0,1.776609090E1
7.915653667E0,-1.297613630E1,-1.697044883E1,-4.926033604E0,2.192355021E1
7.925643667E0,-1.528336339E1,-1.980080526E1,-3.985715958E0,2.532862052E1
7.935633667E0,-1.592470238E1,-1.926428113E1,-2.803496661E0,2.515090986E1
7.945622667E0,-1.476058723E1,-1.693060240E1,-1.595563649E0,2.251812728E1
7.955612667E0,-1.211256804E1,-1.355761617E1,-6.019626653E-1,1.819026167E1
7.965602667E0,-8.484309912E0,-9.862886896E0,-1.102621881E-1,1.301046542E1
7.975592667E0,-5.553660868E0,-6.473657686E0,-8.143292986E-2,8.529831429E0
7.985582667E0,-3.890102288E0,-3.589349581E0,3.107451595E-2,5.293136296E0
7.995572667E0,-3.045028183E0,-7.646170020E-1,1.588793743E-1,3.143577333E0
8.005562667E0,-2.353380485E0,1.903785589E0,3.181948777E-1,3.043689744E0
8.015552667E0,-1.886792995E0,4.233427987E0,4.252889713E-1,4.654328204E0
8.025542667E0,-1.703643583E0,6.322379692E0,5.176317457E-1,6.568320109E0
8.035532667E0,-1.487967426E0,8.049135565E0,4.090735459E-1,8.195728861E0
8.045522667E0,-1.166689677E0,9.375394587E0,1.495355237E-1,9.448891434E0
8.055512667E0,-4.311931973E-1,1.045537707E1,-1.036027211E-1,1.046477763E1
8.065501667E0,1.206801868E0,1.189252328E1,-2.668067143E-1,1.195657419E1
8.075491667E0,3.380155501E0,1.511801349E1,-1.730477625E0,1.558763407E1
8.085481667E0,4.774096044E0,1.690258839E1,-3.782525214E0,1.796655182E1
8.095471667E0,7.270261297E0,1.869214511E1,-6.021569098E0,2.094068486E1
8.105461667E0,1.117636566E1,2.131180765E1,-5.569034953E0,2.470057580E1
8.115451667E0,1.399134859E1,2.108193957E1,3.371296969E0,2.552590164E1
8.125441667E0,1.282578450E1,1.734336203E1,3.809390246E0,2.190443810E1
8.135431667E0,9.291936108E0,1.393915751E1,8.047949749E-1,1.677163927E1
8.145421667E0,5.938195404E0,1.214432076E1,3.504364979E-1,1.352292487E1
8.155411667E0,3.636788042E0,1.043256241E1,4.877454571E-1,1.105904522E1
8.165401667E0,2.080031778E0,8.977447123E0,7.555865622E-1,9.246188409E0
8.175391667E0,1.108935851E0,7.973024697E0,6.698745668E-1,8.077598249E0
8.185380667E0,5.574213539E-1,7.455518045E0,4.926033604E-1,7.492538019E0
8.195370667E0,2.471498919E-1,7.161750423E0,4.517172897E-1,7.180236813E0
8.205360667E0,9.445555620E-2,6.969087006E0,5.651591206E-1,6.992603262E0
8.215350667E0,-1.455871913E-1,6.550740945E0,9.370741957E-1,6.619026410E0
8.225340667E0,-5.208345947E-1,6.005436046E0,1.818513889E0,6.296310311E0
8.235330667E0,-8.103251984E-1,5.619280077E0,2.761416004E0,6.313347278E0
8.245320667E0,-3.080287624E-1,6.586155192E0,2.681420247E0,7.117747991E0
8.255310667E0,5.225369384E-1,8.690285100E0,1.641977677E0,8.859468983E0
8.265300667E0,9.750796357E-1,9.949733251E0,3.002199521E-1,1.000190502E1
8.275290667E0,1.158861424E0,1.054573760E1,-7.631663078E-1,1.063663312E1
8.285280667E0,1.302652643E0,1.091248316E1,-1.222944496E0,1.105779299E1
8.295270667E0,1.457219111E0,1.124910034E1,-1.562514601E0,1.145020515E1
8.305259667E0,1.651774980E0,1.156228306E1,-1.961055558E0,1.184316212E1
8.315249667E0,1.787321478E0,1.174359703E1,-2.402605709E0,1.211936894E1
8.325239667E0,1.844946373E0,1.187020095E1,-2.734847426E0,1.232010098E1
8.335229667E0,1.846310236E0,1.192693765E1,-2.826066329E0,1.239545699E1
8.345219667E0,1.768181787E0,1.186963494E1,-2.698051482E0,1.230017000E1
8.355209667E0,1.706216358E0,1.175611943E1,-2.661937324E0,1.217388305E1
8.365199667E0,1.639444079E0,1.164104740E1,-2.666049086E0,1.205444230E1
8.375189667E0,1.532500697E0,1.140313939E1,-2.719497315E0,1.182268210E1
8.385179667E0,1.460781527E0,1.100618596E1,-2.759797495E0,1.144056354E1
8.395169667E0,1.398969003E0,1.049584097E1,-2.777884102E0,1.094698279E1
8.405159667E0,1.329067732E0,1.004468385E1,-2.421927833E0,1.041766908E1
8.415149667E0,1.280951726E0,9.671113425E0,-1.926458752E0,9.943968802E0
8.425138667E0,1.125963381E0,9.515319627E0,-1.606749957E0,9.715490032E0
8.435128667E0,8.309576105E-1,9.558137033E0,-1.517737209E0,9.713495783E0
8.445118667E0,4.686787467E-1,9.711472077E0,-1.676199092E0,9.866204593E0
8.455109000E0,1.388120225E-1,9.913902683E0,-1.631148634E0,1.004815312E1
8.465099000E0,-1.107760853E-1,1.002694106E1,-1.645086057E0,1.016160058E1
8.475089000E0,-3.216872004E-1,9.690536706E0,-1.730679939E0,9.849123685E0
8.485079000E0,-7.243793875E-1,8.470939668E0,-1.210695237E0,8.587626408E0
8.495069000E0,-1.336037321E0,5.894899111E0,-2.498350795E-1,6.049566003E0
8.505059000E0,-8.843442973E-1,1.425428385E0,-3.656554846E-1,1.716861919E0
8.515049000E0,3.708105361E-1,-1.065388654E1,-3.565129244E0,1.124068260E1
8.525039000E0,-8.690190375E-2,-3.364098696E1,-9.889179486E0,3.506450379E1
8.535029000E0,-2.520792848E0,-5.911369899E1,-1.399218357E1,6.079938327E1
8.545019000E0,-4.559017619E0,-6.849189849E1,-1.152452993E1,6.960416360E1
8.555008000E0,-5.387987030E0,-5.545516633E1,-5.948038023E0,5.603289242E1
8.564998000E0,-6.176272391E0,-3.881139441E1,-5.432025919E0,3.967338633E1
8.574988000E0,-7.325184193E0,-2.669499528E1,-5.893502212E0,2.830219894E1
8.584978000E0,-8.009250537E0,-1.985397750E1,-5.022239013E0,2.198980222E1
8.594968000E0,-9.257348074E0,-1.732465445E1,-3.598380021E0,1.996973920E1
8.604958000E0,-1.157600999E1,-1.905962156E1,-1.719462640E0,2.236581617E1
8.614948000E0,-1.316606322E1,-2.352412274E1,9.905183315E-3,2.695792406E1
8.624938000E0,-1.179565596E1,-2.658413675E1,-2.166136122E-1,2.908437292E1
8.634928000E0,-8.514367524E0,-2.597762378E1,-1.755394804E0,2.739366355E1
8.644918000E0,-5.773865840E0,-2.347500847E1,-2.904903753E0,2.434855263E1
8.654908000E0,-3.745313241E0,-1.990740936E1,-2.884125087E0,2.046095052E1
8.664898000E0,-2.333138740E0,-1.570428808E1,-2.236167200E0,1.603336035E1
8.674888000E0,-1.412983755E0,-1.170406167E1,-1.421209180E0,1.187440180E1
8.684877000E0,-8.325163320E-1,-7.996643940E0,-4.873957571E-1,8.054623044E0
8.694867000E0,-4.689081037E-1,-4.443547096E0,2.021875079E-1,4.472791678E0
8.704857000E0,-3.551274267E-1,-1.353612882E0,4.413864291E-1,1.467380422E0
8.714847000E0,-4.182826182E-1,1.348610589E0,2.848225522E-1,1.440428671E0
8.724837000E0,-5.681202237E-1,3.757683903E0,-3.060198784E-2,3.800511200E0
8.734827000E0,-7.072227797E-1,5.911875333E0,-4.342083871E-1,5.969838434E0
8.744817000E0,-7.509317400E-1,7.819407817E0,-9.457999957E-1,7.912115692E0
8.754807000E0,-6.565644036E-1,9.339485666E0,-1.175200884E0,9.436003733E0
8.764797000E0,-3.618757714E-1,1.061230582E1,-8.588969225E-1,1.065315412E1
8.774787000E0,1.013314615E-1,1.176488207E1,4.283354072E-1,1.177311298E1
8.784777000E0,3.834443592E-1,1.291375118E1,2.125013824E0,1.309303949E1
8.794767000E0,4.399188145E-1,1.332553082E1,2.559815703E0,1.357630129E1
8.804757000E0,3.207271606E-1,1.315281109E1,2.365886949E0,1.336774949E1
8.814746000E0,5.664874983E-1,1.320951505E1,1.409754338E0,1.329660119E1
8.824736000E0,1.164187507E0,1.366875770E1,-6.794903129E-1,1.373506377E1
8.834726000E0,1.633108621E0,1.397320234E1,-2.784412519E0,1.434121266E1
8.844716000E0,2.136548626E0,1.428300537E1,-4.309404368E0,1.507116613E1
8.854706000E0,2.568184530E0,1.444945689E1,-5.141840301E0,1.555059156E1
8.864696000E0,2.676156583E0,1.447346322E1,-5.260352837E0,1.563055544E1
8.874686000E0,2.599471812E0,1.427963737E1,-5.700423058E0,1.559359228E1
8.884676000E0,2.951499337E0,1.410162942E1,-6.143152592E0,1.566223561E1
8.894666000E0,3.496903932E0,1.396616112E1,-5.528190982E0,1.542215579E1
8.904656000E0,3.676917483E0,1.358320709E1,-4.581066592E0,1.479896646E1
8.914646000E0,3.438526793E0,1.308398702E1,-3.366857178E0,1.394094366E1
8.924636000E0,2.975294874E0,1.261766456E1,-2.343103273E0,1.317376072E1
8.934625000E0,2.548839310E0,1.219599143E1,-1.662009653E0,1.256984745E1
8.944615000E0,2.110390083E0,1.181869633E1,-1.159206410E0,1.206147125E1
8.954605000E0,1.726241025E0,1.148775094E1,-7.622839630E-1,1.164170978E1
8.964595000E0,1.393634442E0,1.119356934E1,-4.141693944E-1,1.128759265E1
8.974585000E0,1.050663084E0,1.083445440E1,3.779230893E-2,1.088534443E1
8.984575000E0,5.662171377E-1,1.023576852E1,2.087929612E0,1.046188363E1
8.994565000E0,-1.783848086E-1,9.418872728E0,4.749668716E0,1.055018187E1
9.004555000E0,-3.677284688E-1,8.963486896E0,4.259301916E0,9.930809351E0
9.014545000E0,-3.183607559E-1,8.968424869E0,2.904203841E0,9.432306089E0
9.024535000E0,-1.845939304E-1,9.106108087E0,1.291884996E0,9.199143778E0
9.034525000E0,5.253781736E-2,9.286982347E0,-5.326129335E-1,9.302390976E0
9.044515000E0,1.592282338E-1,9.539078034E0,-1.906306908E0,9.728996320E0
9.054505000E0,3.160215408E-2,9.957679617E0,-2.210519997E0,1.020013631E1
9.064494000E0,-8.827490307E-2,1.045773584E1,-1.798067930E0,1.061155406E1
9.074484000E0,-1.069877473E-1,1.087368805E1,-1.392208598E0,1.096297327E1
9.084474000E0,-5.115772828E-2,1.110551612E1,-1.348966100E0,1.118726128E1
9.094464000E0,8.516191855E-2,1.119700282E1,-1.570354548E0,1.130690666E1
9.104454000E0,2.601253751E-1,1.116124008E1,-1.762972941E0,1.130261116E1
9.114444000E0,5.612150274E-1,1.094018025E1,-1.448483956E0,1.104991457E1
9.124434000E0,8.662952583E-1,1.053373561E1,-8.116145825E-1,1.060041375E1
9.134424000E0,1.080831939E0,9.955664667E0,7.934678949E-2,1.001447715E1
9.144414000E0,1.410336282E0,9.229248109E0,9.006863880E-1,9.379728411E0
9.154404000E0,1.821173787E0,8.551742342E0,7.271644163E-1,8.773695865E0
9.164394000E0,2.223606212E0,8.231820708E0,4.509151979E-1,8.538771649E0
9.174384000E0,2.670782408E0,7.819655739E0,8.490600054E-1,8.306683901E0
9.184374000E0,3.227256659E0,6.216339267E0,3.817216744E0,7.976791529E0
9.194364000E0,3.084396316E0,4.515122278E0,4.622587670E0,7.160177832E0
9.204353000E0,2.396291593E0,2.968565898E0,-1.605790137E0,4.139222011E0
9.214343000E0,1.758501722E0,-5.710716496E0,-6.462443311E0,8.801578538E0
9.224333000E0,5.582243228E-1,-4.044133151E1,-9.917180632E0,4.164328733E1
9.234323000E0,-4.685742277E0,-8.106884771E1,-1.629422770E1,8.282279944E1
9.244313000E0,-1.148380290E1,-9.004169483E1,-1.405250579E1,9.185236772E1
9.254303000E0,-1.873530809E1,-7.700351724E1,-8.637107012E0,7.971921383E1
9.264293000E0,-1.896199996E1,-5.026440588E1,-6.692573347E0,5.413740370E1
9.274283000E0,-1.446549814E1,-2.445210861E1,-1.924280080E0,2.847558789E1
9.284273000E0,-1.114706526E1,-1.228656831E1,1.873529756E0,1.669511721E1
9.294263000E0,-9.041093481E0,-7.138832261E0,4.516786981E0,1.237358727E1
9.304253000E0,-7.874190965E0,-7.260473058E0,4.435231186E0,1.159261092E1
9.314243000E0,-6.204389897E0,-1.178138876E1,1.900503254E0,1.345018541E1
9.324233000E0,-4.859641394E0,-1.664742993E1,-1.439629079E0,1.740188408E1
9.334223000E0,-4.754513134E0,-2.038544263E1,-3.502187476E0,2.122350073E1
9.344212000E0,-4.779375495E0,-2.134346915E1,-4.524685400E0,2.233514906E1
9.354202000E0,-4.177080123E0,-1.830455891E1,-4.386071305E0,1.928062491E1
9.364192000E0,-3.276234106E0,-1.316770278E1,-3.657136352E0,1.405335379E1
9.374182000E0,-2.708464496E0,-8.535912759E0,-3.029768704E0,9.453945471E0
9.384172000E0,-2.309049966E0,-4.769057499E0,-2.182943358E0,5.730694799E0
9.394162000E0,-1.875615896E0,-1.475261865E0,-1.550078743E0,2.845536271E0
9.404152000E0,-1.464247172E0,1.545216199E0,-1.120876157E0,2.405842107E0
9.414142000E0,-1.030544935E0,4.167303579E0,-8.167969698E-1,4.369851173E0
9.424132000E0,-7.189612844E-1,6.431323260E0,-7.167885321E-1,6.510960759E0
9.434122000E0,-4.172428371E-1,8.311705953E0,-9.459081692E-1,8.375756067E0
9.444112000E0,-1.380152663E-1,9.783959425E0,-1.198167650E0,9.858017852E0
9.454102375E0,3.234007269E-2,1.071920227E1,-1.352176221E0,1.080419936E1
9.464092375E0,1.698328537E-1,1.102202139E1,-1.611724768E0,1.114053209E1
9.474082375E0,1.729087998E-1,1.140038652E1,-1.837401565E0,1.154879885E1
9.484071375E0,3.092553986E-1,1.183094976E1,-2.185286338E0,1.203505245E1
9.494061375E0,7.293958600E-1,1.252148955E1,-2.822370889E0,1.285634071E1
9.504051375E0,1.216438372E0,1.343588181E1,-3.590986801E0,1.396058124E1
9.514041375E0,1.462846764E0,1.371819006E1,-3.835617347E0,1.431923950E1
9.524031375E0,1.477369201E0,1.360355423E1,-3.663258387E0,1.416540750E1
9.534021375E0,1.248730498E0,1.325865037E1,-3.371470047E0,1.373746511E1
9.544011375E0,1.070243801E0,1.290637902E1,-3.237867601E0,1.334930064E1
9.554001375E0,9.174844884E-1,1.267906032E1,-3.160786096E0,1.309927163E1
9.563991375E0,7.912003447E-1,1.272468498E1,-3.170234027E0,1.313750317E1
9.573981375E0,7.259002483E-1,1.281041451E1,-3.303968035E0,1.324952286E1
9.583971375E0,6.592966613E-1,1.287609979E1,-3.474775144E0,1.335300267E1
9.593961375E0,4.615957951E-1,1.277189189E1,-3.577482657E0,1.327149860E1
9.603951375E0,2.277925018E-1,1.262299956E1,-3.542979991E0,1.311276914E1
9.613941375E0,1.459423731E-1,1.256775740E1,-3.374848568E0,1.301381682E1
9.623930375E0,-5.058309317E-2,1.250044659E1,-3.260899199E0,1.291886943E1
9.633920375E0,-2.155651333E-1,1.227606554E1,-3.045305341E0,1.264998570E1
9.643910375E0,-3.133048513E-1,1.207774436E1,-2.772935019E0,1.239593632E1
9.653900375E0,-4.710957664E-1,1.189107551E1,-2.511601317E0,1.216255520E1
9.663890375E0,-7.623549335E-1,1.178253715E1,-2.290641031E0,1.202731903E1
9.673880375E0,-1.013454108E0,1.162416531E1,-1.956121092E0,1.183109117E1
9.683870375E0,-1.565115151E0,1.157159534E1,-9.399820161E-1,1.171473304E1
9.693860375E0,-2.290657257E0,1.147981978E1,-6.296574175E-2,1.170629478E1
9.703850375E0,-2.449213572E0,1.112436988E1,-2.571507503E-1,1.139369908E1
9.713840375E0,-2.353473748E0,1.096995895E1,-8.296797015E-1,1.125020917E1
9.723830375E0,-2.171507959E0,1.098969915E1,-1.415210521E0,1.129122469E1
9.733820375E0,-1.770637910E0,1.086176090E1,-2.032109314E0,1.119117852E1
9.743810375E0,-1.392193103E0,1.063092335E1,-2.560574672E0,1.102321530E1
9.753799375E0,-1.056671829E0,1.043150523E1,-2.905141734E0,1.087992211E1
9.763789375E0,-6.796841481E-1,1.023288467E1,-3.160930522E0,1.073151345E1
9.773779375E0,-3.607581126E-1,1.000897841E1,-3.218674700E0,1.051996493E1
9.783769375E0,5.097632207E-1,9.385544769E0,-3.038401533E0,9.878268726E0
9.793759375E0,1.697203679E-1,9.919869182E0,-2.914089729E0,1.034043174E1
9.803749375E0,1.015442454E0,9.465228869E0,-3.182333670E0,1.003737658E1
9.813739375E0,2.358357928E0,8.316753269E0,-3.668651274E0,9.390912588E0
9.823729375E0,4.425103809E0,6.791438654E0,-3.918420938E0,9.003288586E0
9.833719375E0,7.694084444E0,4.532479153E0,-5.828608058E0,1.066372236E1
9.843709375E0,8.576729248E0,4.650847263E0,-6.320498643E0,1.162494593E1
9.853699375E0,5.865179468E0,6.908817415E0,-3.153030349E0,9.595503564E0
9.863689375E0,2.031261614E0,8.115285115E0,-9.713909197E-1,8.421845200E0
9.873679375E0,-5.762416407E-2,6.866820374E0,1.376850886E0,7.003731930E0
9.883669375E0,-6.620039222E-1,2.152147243E0,6.451063460E0,6.832730546E0
9.893658375E0,-1.086150128E0,1.622368455E-1,7.606356329E0,7.685226054E0
9.903648375E0,-3.983574123E0,-5.789095498E0,4.540771090E0,8.366665499E0
9.913638375E0,-7.179516603E0,-2.421034729E1,3.410090321E0,2.548166185E1
9.923628375E0,-1.308787659E1,-5.683615704E1,2.917876093E-1,5.832432083E1
9.933618375E0,-2.076318212E1,-8.591763960E1,-1.273967607E1,8.930425450E1
9.943608375E0,-2.274613900E1,-8.474291059E1,-2.024381839E1,9.004754254E1
9.953598375E0,-1.331722778E1,-5.932683234E1,-1.617038484E1,6.291663482E1
9.963588375E0,-4.362632449E0,-3.072366606E1,-4.885943924E0,3.141414754E1
9.973578375E0,2.367344513E0,-1.027227385E1,3.560523100E-1,1.054754490E1
9.983568375E0,6.249670150E0,2.546380556E-1,3.014709785E0,6.943464021E0
9.993558375E0,5.743387814E0,3.186326734E0,3.016095575E0,7.227448661E0
1.000354837E1,2.993623556E0,3.184092513E0,2.763562517E0,5.170832129E0
1.001353838E1,3.017297763E-1,1.767995115E0,2.231852832E0,2.863217534E0
1.002352838E1,-1.307492091E0,4.460209322E-1,1.442484566E0,1.997306177E0
1.003351837E1,-1.707338585E0,7.441926777E-1,1.081817634E0,2.153870279E0
1.004350837E1,-1.756613802E0,1.098094820E0,1.407851654E0,2.504705684E0
1.005349738E1,-1.319274231E0,8.306846917E-1,2.579066491E0,3.013653185E0
1.006348738E1,-2.053355026E-1,5.780381978E-1,4.091390347E0,4.137120472E0
1.007347737E1,9.366603591E-1,1.365446477E0,4.737055103E0,5.018113964E0
1.008346737E1,1.464709979E0,3.097487063E0,3.883625911E0,5.179029991E0
1.009345738E1,1.581234901E0,4.895122883E0,2.696100851E0,5.807881856E0
1.010344738E1,1.573303299E0,6.412668888E0,2.053700012E0,6.914860033E0
1.011343737E1,1.449235615E0,7.582094477E0,1.489262438E0,7.861701033E0
1.012342737E1,1.247725069E0,8.379290995E0,8.952870691E-1,8.518854052E0
1.013341738E1,9.809179343E-1,8.643184023E0,3.425620892E-1,8.705410895E0
1.014340738E1,7.212164824E-1,8.660135686E0,-3.318359933E-1,8.696448611E0
1.015339737E1,5.474978980E-1,8.632635646E0,-9.865311152E-1,8.706055122E0
1.016338737E1,4.870065518E-1,8.566924637E0,-1.355461187E0,8.687154203E0
1.017337738E1,4.828932548E-1,8.147500350E0,-1.646681762E0,8.326254180E0
1.018336738E1,3.699156929E-1,7.284105749E0,-2.052914585E0,7.576905204E0
1.019335737E1,3.737996328E-1,6.895731347E0,-2.669231141E0,7.403757955E0
1.020334637E1,5.548901673E-1,7.098665982E0,-3.254086608E0,7.828667925E0
1.021333637E1,7.290244887E-1,7.179778558E0,-3.796254476E0,8.154277705E0
1.022332638E1,7.989370881E-1,7.054955707E0,-4.121453807E0,8.209572582E0
1.023331637E1,8.592974567E-1,6.696335446E0,-4.095333710E0,7.896268658E0
1.024330637E1,8.189632170E-1,5.724125331E0,-3.853029771E0,6.948535815E0
1.025329637E1,5.451196893E-1,4.061437985E0,-3.455762338E0,5.360478274E0
1.026328638E1,3.360277891E-1,2.134160038E0,-3.082153909E0,3.763937628E0
1.027327637E1,4.870898746E-2,4.453005552E-2,-2.847911527E0,2.848676106E0
1.028326637E1,-2.284384364E-1,-1.972524871E0,-2.843975766E0,3.468607306E0
1.029325638E1,-3.803507070E-1,-4.091913089E0,-2.953056158E0,5.060529622E0
1.030324638E1,-3.072949369E-1,-6.264526756E0,-2.953719817E0,6.932761817E0
1.031323637E1,5.305814646E-2,-8.209690751E0,-2.536499931E0,8.592768430E0
1.032322637E1,5.289579121E-1,-9.776372663E0,-1.676333578E0,9.933144174E0
1.033321638E1,1.149801748E0,-1.073397936E1,1.202631342E0,1.086216733E1
1.034320638E1,5.943992919E-1,-1.033239492E1,5.015121782E0,1.150057137E1
1.035319538E1,-1.652698840E0,-8.134435331E0,6.622212632E0,1.061857579E1
1.036318537E1,-3.045429009E0,-5.898957664E0,5.955195014E0,8.918334319E0
1.037317537E1,-3.265067971E0,-4.542897137E0,5.085350350E0,7.560381699E0
1.038316538E1,-3.202350444E0,-2.997167553E0,5.688926847E0,7.183449755E0
1.039315538E1,-2.540162334E0,-1.142230774E0,5.440852876E0,6.112282376E0
1.040314537E1,-1.628699089E0,6.031052113E-2,3.816999228E0,4.150395305E0
1.041313537E1,-9.177307293E-1,3.939982545E-1,1.851939497E0,2.104077997E0
1.042312538E1,-2.647526423E-1,5.270481384E-1,2.211440349E-1,6.299034735E-1
1.043311537E1,2.372491671E-1,8.322464830E-1,-9.814352667E-1,1.308486362E0
1.044310537E1,4.983406850E-1,1.266075971E0,-1.858085505E0,2.302992303E0
1.045309537E1,5.943539760E-1,1.767787539E0,-2.225285386E0,2.903484885E0
1.046308588E1,5.704796848E-1,2.240036741E0,-2.354049845E0,3.299206321E0
1.047307587E1,3.699382778E-1,2.552341207E0,-2.330735242E0,3.476151138E0
1.048306587E1,5.239644265E-3,2.648862365E0,-2.094378507E0,3.376821081E0
1.049305588E1,-5.089218064E-1,2.460469755E0,-1.811756846E0,3.097640342E0
1.050304488E1,-1.038276927E0,2.131260404E0,-1.634025464E0,2.879293161E0
1.051303488E1,-1.382147587E0,1.825756250E0,-1.512674689E0,2.744431189E0
1.052302487E1,-1.430770693E0,1.717122000E0,-1.337064092E0,2.604487114E0
1.053301487E1,-1.228027407E0,1.745117884E0,-9.634830721E-1,2.341321715E0
1.054300488E1,-8.568012073E-1,1.696643881E0,-3.640458924E-1,1.935261786E0
1.055299487E1,-4.179494731E-1,1.667802490E0,2.814639846E-1,1.742259706E0
1.056298487E1,6.798016315E-2,1.723842205E0,8.043277093E-1,1.903469546E0
1.057297488E1,5.321017407E-1,1.741518338E0,1.211296331E0,2.187065885E0
1.058296488E1,9.260855234E-1,1.720135070E0,1.541101513E0,2.488271072E0
1.059295487E1,1.171813592E0,1.749620824E0,1.943333817E0,2.865460948E0
1.060294487E1,1.266887272E0,1.889676257E0,2.236758208E0,3.190449341E0
1.061293488E1,1.160990980E0,2.174189492E0,2.329433652E0,3.391350932E0
1.062292488E1,9.409558699E-1,2.677235395E0,2.137809286E0,3.552916527E0
1.063291487E1,7.210307602E-1,3.203148589E0,1.548305867E0,3.630054724E0
1.064290487E1,4.218530743E-1,3.762247070E0,5.715127051E-1,3.828719081E0
1.065289488E1,1.809388907E-1,4.311725712E0,-3.033722591E-1,4.326170619E0
1.066288388E1,-1.208455205E-1,4.734462447E0,-1.065472620E0,4.854376397E0
1.067287388E1,-4.036657851E-1,5.374472360E0,-1.512639606E0,5.597854749E0
1.068286387E1,-3.978118451E-1,6.045004739E0,-1.591964103E0,6.263759754E0
1.069285387E1,-1.066246352E-1,6.726456792E0,-1.209756174E0,6.835210296E0
1.070284388E1,8.105875191E-1,7.693080477E0,-1.334291342E0,7.849896352E0
1.071283388E1,2.236616851E0,8.379609668E0,-4.828534791E0,9.926482829E0
1.072282387E1,3.179363869E0,8.602841159E0,-9.542789261E0,1.323563589E1
1.073281387E1,3.043035452E0,8.750842958E0,-1.176562583E1,1.497555570E1
1.074280388E1,2.458351893E0,8.716466593E0,-9.916576030E0,1.342977156E1
1.075279387E1,2.058208069E0,7.598588303E0,-5.961022350E0,9.874641872E0
1.076278387E1,1.810844973E0,4.767185220E0,-2.781686547E0,5.808872049E0
1.077277387E1,1.231672123E0,8.438087672E-1,1.471225093E0,2.096075554E0
1.078276388E1,3.285980611E-1,-4.370509526E0,9.629309342E0,1.057983594E1
1.079275387E1,-1.047805769E0,-8.575370355E0,8.865379972E0,1.237860395E1
1.080274387E1,-2.824479395E0,-1.087083461E1,-4.695511512E-1,1.124158384E1
1.081273388E1,-4.513028390E0,-1.196394585E1,-5.490293423E0,1.391570147E1
1.082272288E1,-5.123126287E0,-1.250827134E1,-5.357385042E0,1.453976786E1
1.083271288E1,-4.642404176E0,-1.213708658E1,-4.952716788E0,1.390648017E1
1.084270287E1,-3.375106138E0,-1.036290920E1,-5.025449134E0,1.200151522E1
1.085269287E1,-9.986491042E-1,-8.095823827E0,-6.054960208E0,1.015884868E1
1.086268288E1,1.149582843E0,-7.946969504E0,-5.442852623E0,9.700541722E0
1.087267288E1,1.885922345E0,-1.043593742E1,-5.614278953E0,1.199940086E1
1.088266287E1,1.433068357E0,-1.277722806E1,-8.071940875E0,1.518115513E1
1.089265287E1,6.589259478E-1,-1.413821311E1,-9.989667395E0,1.732387682E1
1.090264288E1,-3.780439074E-1,-1.549756678E1,-1.060843847E1,1.878447391E1
1.091263288E1,-1.604175428E0,-1.740997234E1,-1.010238651E1,2.019254142E1
1.092262287E1,-2.882769703E0,-1.974165951E1,-9.506610199E0,2.210020631E1
1.093261287E1,-4.487210887E0,-2.230313757E1,-9.137295381E0,2.451642662E1
1.094260288E1,-6.404499743E0,-2.500296310E1,-8.933426360E0,2.731248592E1
1.095259287E1,-8.519145868E0,-2.709625695E1,-8.706853770E0,2.970845485E1
1.096258287E1,-1.063454395E1,-2.733862872E1,-7.135874155E0,3.018964798E1
1.097257287E1,-1.204862639E1,-2.499226971E1,-3.043041299E0,2.791134256E1
1.098256288E1,-1.006214480E1,-1.969764635E1,-3.245637747E-1,2.212124253E1
1.099255188E1,-6.596867875E0,-1.421099223E1,-2.845231748E-1,1.567009634E1
1.100254187E1,-3.899106707E0,-9.998551655E0,-1.089606344E0,1.078708998E1
1.101253187E1,-2.349521177E0,-6.162510384E0,-1.824961613E0,6.843045293E0
1.102252188E1,-1.476821317E0,-2.693133974E0,-1.996830723E0,3.663509894E0
1.103251188E1,-7.337283544E-1,2.771486664E-1,-1.327636773E0,1.542007808E0
1.104250187E1,8.030766244E-1,3.371548399E0,1.071132578E0,3.627615701E0
1.105249187E1,2.725888322E0,6.971145226E0,5.132404649E0,9.075731947E0
1.106248188E1,2.824402796E0,9.442582018E0,4.876638665E0,1.099641810E1
1.107247188E1,1.810775830E0,1.105134751E1,3.234749866E0,1.165653455E1
1.108246187E1,9.534684728E-1,1.199806786E1,2.961931062E0,1.239498972E1
1.109245187E1,8.084592788E-1,1.266704195E1,3.260379381E0,1.310487054E1
1.110244188E1,1.411394190E0,1.398184336E1,3.177328454E0,1.440761581E1
1.111243188E1,2.545908685E0,1.628196959E1,2.144472334E0,1.661875286E1
1.112242187E1,3.404892147E0,1.793438338E1,3.727957390E-1,1.825854251E1
1.113241187E1,3.201950494E0,1.706496089E1,-6.903656224E-1,1.737647783E1
1.114240188E1,2.376674915E0,1.509836685E1,-1.468589022E0,1.535467417E1
1.115239088E1,1.427432225E0,1.327366368E1,-1.843092075E0,1.347682079E1
1.116238087E1,8.230086131E-1,1.213999732E1,-1.497150332E0,1.225962223E1
1.117237087E1,4.170221778E-1,1.142799474E1,-1.055425349E0,1.148420193E1
1.118236088E1,3.304385819E-1,1.100562345E1,-8.018661046E-1,1.103974305E1
1.119235088E1,2.605975378E-1,1.078498813E1,-6.765199274E-1,1.080932742E1
1.120234087E1,2.326483586E-1,1.061368108E1,-5.794830813E-1,1.063203424E1
1.121233087E1,2.900363682E-1,1.046750069E1,-5.064916670E-1,1.048376009E1
1.122232088E1,4.632380587E-1,1.035542360E1,-3.428836129E-1,1.037144911E1
1.123231088E1,7.482117614E-1,1.026045312E1,-1.429883963E-1,1.028869111E1
1.124230087E1,1.084986094E0,1.017210754E1,4.335827351E-2,1.022989964E1
1.125229087E1,1.435146749E0,1.006715119E1,3.357307506E-1,1.017447268E1
1.126228088E1,1.930490992E0,9.354315959E0,3.733583434E0,1.025522636E1
1.127227088E1,2.303223508E0,7.645745512E0,7.842711310E0,1.119242528E1
1.128226087E1,2.133784355E0,7.522287986E0,5.041673403E0,9.303565065E0
1.129225087E1,1.981984497E0,7.982017715E0,2.167814857E0,8.505309554E0
1.130224088E1,1.951752638E0,8.633248435E0,-8.590963856E-1,8.892714068E0
1.131222988E1,1.960926480E0,9.697071555E0,-3.677899815E0,1.055487453E1
1.132221987E1,2.007642079E0,1.058905495E1,-5.455198435E0,1.207964823E1
1.133220987E1,1.861667363E0,1.122065247E1,-5.637443283E0,1.269447179E1
1.134219988E1,1.433597968E0,1.154140149E1,-4.709801230E0,1.254756466E1
1.135218988E1,1.127728948E0,1.146391068E1,-3.876677665E0,1.215407957E1
1.136217987E1,8.972386504E-1,1.116267265E1,-3.218597517E0,1.165202420E1
1.137216987E1,7.046761711E-1,1.087228238E1,-2.601644930E0,1.120141281E1
1.138215988E1,4.805230129E-1,1.070330603E1,-2.064463567E0,1.091117190E1
1.139214988E1,2.945449735E-1,1.058367551E1,-1.593265693E0,1.070698088E1
1.140213987E1,1.425486491E-1,1.048463069E1,-1.128544269E0,1.054615632E1
1.141212987E1,6.891506441E-2,1.035980550E1,-8.116859186E-1,1.039178297E1
1.142211988E1,4.897883646E-2,1.024717526E1,-5.366095420E-1,1.026133274E1
1.143210988E1,6.039534230E-2,1.016906348E1,-2.880473282E-1,1.017332153E1
1.144209987E1,2.574119747E-2,1.012960413E1,-8.741240222E-2,1.013001399E1
1.145208987E1,-3.082067370E-3,1.010771215E1,1.443648126E-1,1.010874353E1
1.146207912E1,-9.677123632E-2,1.013580803E1,6.294486719E-1,1.015579513E1
1.147206913E1,2.918472144E-1,1.042931135E1,1.156576917E0,1.049730348E1
1.148205813E1,3.643233135E0,1.163026864E1,1.182957215E0,1.224482274E1
1.149204812E1,1.803176350E0,1.134338319E1,1.082745295E0,1.153672937E1
1.150203812E1,6.281292477E0,1.374081528E1,8.540758932E-1,1.513255053E1
1.151202813E1,7.184951005E0,1.370862636E1,-2.067271399E-1,1.547878205E1
1.152201813E1,4.077452632E0,1.103820063E1,-2.622990190E0,1.205601803E1
1.153200812E1,1.563270939E0,8.955957436E0,-4.822947777E0,1.029144377E1
1.154199812E1,-1.892215995E0,6.161712239E0,-6.658425023E0,9.267243543E0
1.155198813E1,-4.967330149E0,2.367775015E0,-1.007902571E1,1.148335694E1
1.156197813E1,-1.100910956E1,-3.063476148E0,-1.192578926E1,1.651695580E1
1.157196812E1,-1.658723401E1,-1.099453129E1,-5.497986020E0,2.064567511E1
1.158195812E1,-1.922896979E1,-2.075184787E1,8.474692411E0,2.953325043E1
1.159194813E1,-1.745962339E1,-3.070269560E1,8.454042385E0,3.631755497E1
1.160193813E1,-1.048836355E1,-3.339884206E1,-6.311429611E0,3.557137283E1
1.161192812E1,1.322066569E0,-3.645967702E1,-9.370948072E-1,3.649567173E1
1.162191812E1,8.245017289E0,-5.178115491E1,9.557783861E0,5.329746285E1
1.163190813E1,1.113879964E1,-6.349234200E1,2.577280751E0,6.451350809E1
1.164189813E1,9.648066040E0,-4.077709734E1,-1.977317834E-1,4.190341208E1
1.165188812E1,5.951679668E0,-1.090477419E1,-5.959276371E0,1.377859085E1
1.166187712E1,4.936862648E0,-1.993290088E0,-6.325413812E0,8.267809751E0
1.167186713E1,4.666662812E0,-3.105672580E0,-6.117555455E-1,5.638899611E0
1.168185713E1,3.820202333E0,-7.748072956E0,1.882430388E0,8.841387027E0
1.169184712E1,3.514077497E0,-1.130646387E1,1.935327809E0,1.199709797E1
1.170183712E1,3.020091855E0,-1.103050803E1,1.591767637E0,1.154672189E1
1.171182713E1,3.200932201E0,-9.494229890E0,3.320001100E0,1.055503555E1
1.172181713E1,2.712533281E0,-7.945094302E0,5.551686848E0,1.006496831E1
1.173180712E1,1.645044980E0,-6.099103763E0,6.370974147E0,8.971875572E0
1.174179712E1,4.251174286E-1,-5.025289505E0,5.700190923E0,7.610941860E0
1.175178713E1,-5.348253737E-1,-4.675172850E0,4.778468592E0,6.706492484E0
1.176177713E1,-9.438461486E-1,-5.359266676E0,4.087173336E0,6.805701340E0
1.177176712E1,-7.901197793E-1,-6.117873325E0,3.636306231E0,7.160683367E0
1.178175712E1,2.748147503E-1,-5.885064679E0,3.513125278E0,6.859413870E0
1.179174713E1,2.263261736E0,-3.894628617E0,3.052791531E0,5.441509155E0
1.180173713E1,3.694961698E0,-8.603727597E-1,2.292994974E0,4.432923322E0
1.181172712E1,4.388092103E0,-4.765293646E-1,2.241290385E0,4.950334850E0
1.182171712E1,4.880004030E0,-1.442611012E0,1.729764265E0,5.374723275E0
1.183170713E1,4.736675034E0,-1.994531452E0,1.369268217E0,5.318753758E0
1.184169613E1,4.239514938E0,-2.056306116E0,9.189209300E-1,4.800655937E0
1.185168612E1,3.100848627E0,-1.541762833E0,2.467419755E-1,3.471768489E0
1.186167612E1,2.197884602E0,2.710242927E-2,-1.876324725E-1,2.206045605E0
1.187166613E1,1.742339141E0,2.059914433E0,-5.098403674E-1,2.745711265E0
1.188165613E1,1.394396626E0,3.867418014E0,-6.946755320E-1,4.169393019E0
1.189164612E1,1.091855257E0,5.285670696E0,-6.557886243E-1,5.436958831E0
1.190163612E1,6.634660184E-1,6.152508722E0,-6.790751606E-1,6.225326803E0
1.191162613E1,2.108197524E-1,6.882948748E0,-8.011784720E-1,6.932626875E0
1.192161613E1,-3.278717273E-1,7.604547200E0,-9.444223917E-1,7.669978595E0
1.193160612E1,-8.852159710E-1,7.351096129E0,-1.161019047E0,7.494677234E0
1.194159612E1,-1.001773271E0,7.608014014E0,-1.257083538E0,7.775968490E0
1.195158613E1,-1.068176518E0,8.043390675E0,-1.106749284E0,8.189140895E0
1.196157613E1,-1.042060222E0,8.280892296E0,-1.029604045E0,8.409467950E0
1.197156612E1,-8.902518124E-1,8.322813324E0,-1.078596695E0,8.439498844E0
1.198155612E1,-7.242019976E-1,8.045724884E0,-1.046065711E0,8.145698921E0
1.199154613E1,-4.940413369E-1,7.658956127E0,-8.349508202E-1,7.720157295E0
1.200153613E1,-1.764681644E-1,7.266132578E0,-6.123976064E-1,7.294028686E0
1.201152612E1,1.973095413E-1,6.649184083E0,-4.682461989E-1,6.668570651E0
1.202151512E1,6.146890571E-1,5.773859408E0,-4.022896063E-1,5.820406518E0
1.203150512E1,7.329950405E-1,4.423933781E0,-3.847502983E-1,4.500722677E0
1.204149513E1,2.623935100E-1,2.553888381E0,-3.995343983E-1,2.598234776E0
1.205148512E1,-1.989774596E-1,1.033997642E0,-2.921315900E-1,1.092741516E0
1.206147512E1,-5.934724351E-1,-5.708642489E-1,1.088285604E-2,8.235374663E-1
1.207146513E1,-9.823423161E-1,-2.170194089E0,4.355813134E-1,2.421666759E0
1.208145513E1,-1.303135039E0,-3.617897442E0,7.483067787E-1,3.917563766E0
1.209144512E1,-1.452049588E0,-4.705824539E0,9.893863106E-1,5.023158157E0
1.210143512E1,-1.344069057E0,-5.277819055E0,1.217973851E0,5.580802443E0
1.211142513E1,-8.456116100E-1,-5.039854335E0,1.417679654E0,5.303301454E0
1.212141513E1,-7.199165002E-3,-4.017552293E0,1.591285826E0,4.321223072E0
1.213140512E1,7.834964919E-1,-3.022868405E0,1.803363168E0,3.606066952E0
1.214139512E1,1.403219782E0,-2.288791995E0,1.890422508E0,3.283487751E0
1.215138513E1,1.816913506E0,-1.670109801E0,1.748939624E0,3.024769618E0
1.216137513E1,2.051276926E0,-1.106707769E0,1.420795051E0,2.729688204E0
1.217136512E1,2.085988629E0,-6.899831414E-1,1.041123644E0,2.431329624E0
1.218135512E1,2.005863210E0,-4.560711265E-1,6.720719504E-1,2.164063029E0
1.219134513E1,1.891789003E0,-3.603890437E-1,2.783988559E-1,1.945829339E0
1.220133413E1,1.744948899E0,-3.685067332E-1,-1.836025532E-1,1.792861894E0
1.221132412E1,1.574997676E0,-2.523208040E-1,-3.733166893E-1,1.638184610E0
1.222131412E1,1.435451535E0,-1.054872787E-1,-2.679954167E-1,1.464059500E0
1.223130412E1,1.277412845E0,6.912929177E-2,-1.179839297E-1,1.284711112E0
1.224129413E1,1.077771214E0,2.130321926E-1,-6.654365301E-2,1.100636890E0
1.225128412E1,8.580138467E-1,2.938407129E-1,8.396601677E-4,9.069348548E-1
1.226127412E1,5.256289095E-1,6.075432479E-1,3.176979375E-1,8.639019204E-1
1.227126413E1,1.619710165E-1,1.009408346E0,7.080732572E-1,1.243586570E0
1.228125413E1,-4.999482673E-2,1.416839994E0,1.030855933E0,1.752883056E0
1.229124412E1,-2.840100450E-2,1.808091812E0,1.127119814E0,2.130821835E0
1.230123412E1,2.331699485E-1,1.924567763E0,9.548549938E-1,2.161036177E0
1.231122413E1,6.182346625E-1,1.719996491E0,6.318969011E-1,1.933881000E0
1.232121413E1,1.038229345E0,1.249676870E0,3.185785282E-1,1.655628198E0
1.233120412E1,1.249877137E0,5.069114971E-1,2.021218546E-1,1.363820137E0
1.234119412E1,1.307525567E0,-3.160636407E-1,7.174416661E-2,1.347095601E0
1.235118413E1,1.255245173E0,-1.090150793E0,-9.730117679E-2,1.665393862E0
1.236117413E1,1.143750830E0,-1.770063860E0,-1.710766478E-1,2.114369705E0
1.237116412E1,1.000958974E0,-2.289306550E0,-2.492432317E-2,2.498692572E0
1.238115312E1,8.677937534E-1,-2.726934389E0,3.638991272E-1,2.884728711E0
1.239114312E1,8.237716748E-1,-2.932185107E0,7.491020000E-1,3.136473032E0
1.240113313E1,6.962778153E-1,-2.885958774E0,5.440249443E-1,3.018198798E0
1.241112312E1,2.136685158E-1,-2.931142548E0,-3.590763438E-1,2.960774678E0
1.242111312E1,-4.930128117E-1,-3.467512318E0,-1.621079729E0,3.859352639E0
1.243110312E1,-1.006509370E0,-4.253304427E0,-2.957333397E0,5.277260698E0
1.244109313E1,-1.024788132E0,-4.717508445E0,-3.980311376E0,6.256832689E0
1.245108312E1,-3.296428489E-1,-4.113734313E0,-4.047032785E0,5.780133975E0
1.246107392E1,8.024370852E-1,-2.322739175E0,-3.331812476E0,4.140047938E0
1.247106392E1,1.857751337E0,-3.117232525E-1,-3.059205342E0,3.592652048E0
1.248105392E1,2.621062656E0,1.356647587E0,-3.471386098E0,4.556422233E0
1.249104392E1,3.120582688E0,2.656696465E0,-4.398450446E0,6.011858177E0
1.250103392E1,3.179311537E0,3.801643270E0,-5.395460356E0,7.326083937E0
1.251102392E1,2.968664131E0,4.912803694E0,-5.762402374E0,8.133504041E0
1.252101392E1,2.821511056E0,6.013750786E0,-5.448005190E0,8.591093278E0
1.253100392E1,2.549796207E0,7.022733455E0,-4.599757217E0,8.773711434E0
1.254099392E1,2.240381289E0,7.333700078E0,-2.978548265E0,8.226433913E0
1.255098392E1,2.135491742E0,7.026722426E0,-1.017159415E0,7.414159852E0
1.256097392E1,2.412093401E0,7.302653117E0,4.038016963E-1,7.701298133E0
1.257096292E1,2.811286030E0,8.015245103E0,6.866163146E-1,8.521673847E0
1.258095292E1,2.567127354E0,9.164126499E0,-2.144639930E-2,9.516922680E0
1.259094292E1,1.388358207E0,1.069749039E1,-1.317981119E0,1.086742442E1
1.260093292E1,-5.034948959E-1,1.245037104E1,-2.969846438E0,1.280957587E1
1.261092292E1,-2.980115026E0,1.453099163E1,-4.174349474E0,1.540960729E1
1.262091292E1,-5.539312386E0,1.706463461E1,-4.162693634E0,1.841775650E1
1.263090292E1,-8.155510451E0,1.891034332E1,-3.945459048E0,2.096854983E1
1.264089292E1,-9.539678543E0,1.865113391E1,-1.768876290E0,2.102377668E1
1.265088292E1,-8.590282509E0,1.560530407E1,-1.536850587E0,1.787960790E1
1.266087292E1,-6.377596119E0,1.091234750E1,-2.121862174E0,1.281621470E1
1.267086292E1,-3.840290734E0,6.490717523E0,-2.009142036E0,7.804735652E0
1.268085292E1,-1.819928915E0,3.591803657E0,-1.105378843E0,4.175530763E0
1.269084292E1,-1.067419596E0,8.893451285E-1,1.603739226E-1,1.398584694E0
1.270083292E1,-1.080824046E0,-2.122597169E0,1.819131939E0,2.997138698E0
1.271082292E1,-2.147401935E0,-5.455956234E0,5.061304845E0,7.745682683E0
1.272081292E1,-4.464543571E0,-8.833258293E0,5.720462050E0,1.143163538E1
1.273080292E1,-8.097561620E0,-1.475253094E1,2.755126154E0,1.705281189E1
1.274079292E1,-1.282798189E1,-2.423037518E1,-4.847756928E0,2.784185604E1
1.275078192E1,-1.718466743E1,-3.627791749E1,-1.101699512E1,4.162660536E1
1.276077192E1,-1.921361851E1,-4.338107765E1,-1.168816075E1,4.886403725E1
1.277076192E1,-1.746697451E1,-3.882205506E1,-6.716246384E0,4.309704309E1
1.278075192E1,-1.276248021E1,-2.557157208E1,-7.579374937E0,2.956743351E1
1.279074192E1,-9.710789707E0,-1.927058910E1,-1.007810887E1,2.381645061E1
1.280073192E1,-9.127546318E0,-1.761265905E1,-1.069315877E1,2.253578277E1
1.281072192E1,-8.703624938E0,-1.889334312E1,-8.722452972E0,2.255643339E1
1.282071192E1,-7.871458561E0,-2.171298512E1,-5.595149202E0,2.376382286E1
1.283070192E1,-8.191039302E0,-2.362913172E1,-4.409337376E0,2.539431524E1
1.284069192E1,-8.572702855E0,-2.318346864E1,-3.675798326E0,2.498951671E1
1.285068192E1,-8.434316218E0,-2.076840719E1,-1.928133541E0,2.249849164E1
1.286067192E1,-7.792436950E0,-1.664869994E1,-2.710510437E-1,1.838408965E1
1.287066192E1,-6.546204675E0,-1.235345227E1,6.324069245E-1,1.399501758E1
1.288065192E1,-5.037468086E0,-8.466761248E0,9.239723396E-1,9.895244092E0
1.289064192E1,-3.837496642E0,-4.969745634E0,8.909321360E-1,6.341806700E0
1.290063192E1,-3.042008973E0,-1.824065235E0,1.215508811E0,3.749465861E0
1.291062192E1,-2.477769912E0,1.071446720E0,1.609379450E0,3.142840121E0
1.292061192E1,-2.012328622E0,3.906321879E0,2.069368211E0,4.857067212E0
1.293060192E1,-1.672097416E0,6.516616010E0,2.612813112E0,7.217270007E0
1.294059192E1,-1.456370242E0,8.646539741E0,2.791211661E0,9.201876238E0
1.295058092E1,-3.590184563E-1,1.354740810E1,2.408717803E0,1.376455891E1
1.296057092E1,1.153452311E0,1.907739710E1,1.374009724E0,1.916156139E1
1.297056092E1,1.239696111E0,1.901129550E1,3.146515381E-1,1.905427008E1
1.298055092E1,1.786430216E0,1.952757891E1,-2.715546352E-1,1.961100234E1
1.299054092E1,1.515096752E0,1.714333814E1,-4.963537280E-1,1.721731476E1
1.300053092E1,2.018958342E0,1.655397505E1,7.209599358E-1,1.669221573E1
1.301052092E1,1.977950649E0,1.618802355E1,3.120331550E-1,1.631139969E1
1.302051092E1,1.357519553E0,1.429172941E1,-2.594921216E0,1.458869443E1
1.303050092E1,1.359846306E0,1.215161925E1,-4.739242546E0,1.311378863E1
1.304049092E1,1.503973009E0,1.079323270E1,-5.714984964E0,1.230515583E1
1.305048092E1,1.764647292E0,1.004769633E1,-6.164201399E0,1.191920973E1
1.306047092E1,2.295730301E0,9.313659099E0,-5.651363164E0,1.113339701E1
1.307046092E1,2.938382571E0,8.632714584E0,-4.255693014E0,1.006323885E1
1.308045092E1,3.498247915E0,7.793820986E0,-2.860488303E0,9.009094148E0
1.309044092E1,3.517884327E0,6.981912289E0,-1.500675033E0,7.960818733E0
1.310043092E1,2.755313558E0,6.440154895E0,-2.215475658E-1,7.008311579E0
1.311042092E1,1.333617451E0,6.909716132E0,6.979154742E-1,7.071760640E0
1.312041092E1,1.007890409E-1,7.819600191E0,1.222145839E0,7.915171888E0
1.313040092E1,-5.905347209E-1,8.583754093E0,1.228372539E0,8.691286710E0
1.314038992E1,-8.634470795E-1,9.212508116E0,8.734967621E-1,9.294021909E0
1.315037992E1,-9.204607212E-1,9.619348025E0,4.465455005E-1,9.673598465E0
1.316036992E1,-1.012902350E0,9.688990703E0,3.751500472E-3,9.741792755E0
1.317035992E1,-1.117509550E0,9.626402691E0,-2.840325203E-1,9.695211748E0
1.318034992E1,-1.276084942E0,9.670243360E0,-2.945628440E-1,9.758522772E0
1.319033992E1,-1.505503372E0,9.804825214E0,-2.045490521E-1,9.921843488E0
1.320032992E1,-1.633781781E0,9.971310647E0,-2.177438790E-1,1.010661621E1
1.321031992E1,-1.704582354E0,1.006665067E1,-3.297525573E-1,1.021527256E1
1.322030992E1,-1.677493373E0,1.018192034E1,-4.158095384E-1,1.032755457E1
1.323029992E1,-1.466349977E0,1.036939961E1,-5.167108458E-1,1.048530499E1
1.324028992E1,-1.133613659E0,1.061122759E1,-8.040653155E-1,1.070185740E1
1.325027992E1,-7.505500630E-1,1.054683103E1,-1.305603295E0,1.065380543E1
1.326026992E1,-3.602355177E-1,1.032413164E1,-1.865337807E0,1.049747345E1
1.327025992E1,-2.574873489E-2,1.015548391E1,-2.424533352E0,1.044092325E1
1.328024992E1,2.523007042E-1,9.985038739E0,-2.846058544E0,1.038579335E1
1.329023992E1,4.653258801E-1,9.855949759E0,-3.149215041E0,1.035730801E1
1.330022992E1,6.838998444E-1,9.864561539E0,-3.374625204E0,1.044822418E1
1.331021992E1,8.491107300E-1,9.938289081E0,-3.386542999E0,1.053371978E1
1.332020992E1,9.308811904E-1,1.002625810E1,-3.107708580E0,1.053803795E1
1.333019892E1,1.003530871E0,1.003049266E1,-2.803814165E0,1.046323234E1
1.334018892E1,1.046109346E0,1.011923819E1,-2.566202032E0,1.049184060E1
1.335017892E1,8.272706486E-1,1.022214918E1,-1.722946996E0,1.039929118E1
1.336016892E1,2.726467489E-1,1.029900615E1,-6.429558132E-1,1.032265742E1
1.337015892E1,-1.556408939E-1,1.015179197E1,-2.387570544E-1,1.015579191E1
1.338014892E1,-4.696906073E-1,9.234097790E0,-2.457116961E-2,9.246068084E0
1.339013892E1,-4.830330764E-1,7.743097560E0,3.155122483E-1,7.764562367E0
1.340012892E1,-9.434014678E-2,6.454328545E0,-3.736417580E-1,6.465822855E0
1.341011892E1,-1.057405070E0,3.752760547E0,1.617164433E-1,3.902239026E0
1.342010892E1,-3.974593384E0,-3.465489766E0,1.092875157E0,5.385293678E0
1.343009892E1,-8.324036561E0,-1.944114303E1,1.966930255E-2,2.114823902E1
1.344008892E1,-1.521680103E1,-4.880696633E1,-7.503568125E0,5.167179628E1
1.345007892E1,-2.348264961E1,-7.860450359E1,-1.098184984E1,8.276897875E1
1.346006800E1,-2.541486904E1,-7.610740571E1,-5.881814797E0,8.045401492E1
1.347005800E1,-1.669580511E1,-3.988559810E1,-7.205643132E0,4.383528415E1
1.348004800E1,-9.107443006E0,-2.130355372E1,-9.998014880E0,2.523385069E1
1.349003800E1,-6.517007189E0,-1.504517940E1,-8.428955491E0,1.843572881E1
1.350002800E1,-6.303451670E0,-1.438558892E1,-6.454680548E0,1.698062344E1
1.351001800E1,-7.035611363E0,-2.029111067E1,-4.693355352E0,2.198309769E1
1.352000800E1,-7.597248706E0,-2.707770257E1,-2.768546684E0,2.825924654E1
1.352999800E1,-8.116306624E0,-2.876103409E1,-1.248840133E0,2.991038477E1
1.353998700E1,-7.920122598E0,-2.432590465E1,-5.398780990E-1,2.558846317E1
1.354997700E1,-6.435569508E0,-1.849395023E1,3.198555601E-1,1.958430641E1
1.355996700E1,-4.966505107E0,-1.391172589E1,3.723483539E-1,1.477636401E1
1.356995700E1,-3.803474033E0,-1.021009924E1,-1.471755874E-1,1.089652247E1
1.357994700E1,-2.851996976E0,-7.155746502E0,-5.250530684E-1,7.721028136E0
1.358993700E1,-2.208390295E0,-4.576832623E0,-9.217574143E-1,5.164689853E0
1.359992700E1,-1.898729940E0,-2.334283333E0,-1.278366233E0,3.269292628E0
1.360991700E1,-1.696342019E0,-2.057342827E-2,-1.365956354E0,2.178034957E0
1.361990700E1,-1.503751984E0,2.316955694E0,-1.264357474E0,3.037787606E0
1.362989700E1,-1.413712903E0,4.738066671E0,-1.142244807E0,5.074700301E0
1.363988700E1,-1.437166962E0,7.012224839E0,-1.173425084E0,7.253528280E0
1.364987700E1,-1.400286965E0,8.722345968E0,-1.523138282E0,8.964378004E0
1.365986700E1,-1.361936247E0,9.761632417E0,-2.518212764E0,1.017279378E1
1.366985700E1,-1.336429962E0,1.045734291E1,-3.308882035E0,1.104946904E1
1.367984700E1,-1.330064683E0,1.123711823E1,-4.293656062E0,1.210278400E1
1.368983700E1,-8.134693193E-1,1.394513220E1,-5.611756464E0,1.505391162E1
1.369982700E1,3.405200587E0,2.753319131E1,-7.226625865E0,2.866873098E1
1.370981700E1,4.670895612E0,3.139460365E1,-9.985307711E0,3.327378509E1
1.371980700E1,3.143560783E0,2.620125406E1,-1.133755585E1,2.872155743E1
1.372979700E1,2.411621092E0,2.029791917E1,-9.238719429E0,2.243157095E1
1.373978600E1,1.941938086E0,1.355360381E1,-5.175667613E0,1.463758296E1
1.374977600E1,2.895112298E0,9.630272963E0,-1.723571333E0,1.020267272E1
1.375976600E1,3.599364984E0,7.444978439E0,-2.101350726E0,8.532221699E0
1.376975600E1,4.199272353E0,6.427367619E0,-3.431957738E0,8.409713237E0
1.377974600E1,4.318464921E0,5.704364081E0,-3.780370515E0,8.091978131E0
1.378973600E1,4.030224671E0,5.329166964E0,-3.352854851E0,7.475584731E0
1.379972600E1,3.508317112E0,5.752483742E0,-2.740196459E0,7.273790951E0
1.380971600E1,3.046882043E0,6.597731509E0,-2.200511610E0,7.593141813E0
1.381970600E1,2.445459952E0,7.833351672E0,-1.677997110E0,8.375998275E0
1.382969600E1,1.554913513E0,9.548879136E0,-9.471793538E-1,9.720905180E0
1.383968600E1,9.556548198E-1,1.061284961E1,-6.644249618E-2,1.065599679E1
1.384967600E1,5.955641303E-1,1.094853007E1,6.540396490E-1,1.098420572E1
1.385966600E1,1.003569774E-1,1.068171110E1,9.336366177E-1,1.072290543E1
1.386965600E1,-4.167752426E-1,1.016180124E1,8.244095329E-1,1.020370311E1
1.387964600E1,-7.467593130E-1,9.717235093E0,8.013865598E-1,9.778779461E0
1.388963600E1,-9.545079616E-1,9.383544436E0,9.164504814E-1,9.476385024E0
1.389962600E1,-1.247553161E0,9.186578638E0,1.087792538E0,9.334500981E0
1.390961600E1,-1.557656150E0,8.981454805E0,1.210689974E0,9.195574659E0
1.391960600E1,-1.884120233E0,8.716684109E0,1.289152007E0,9.010682760E0
1.392959600E1,-2.239245028E0,8.434227925E0,1.277434187E0,8.819424986E0
1.393958500E1,-2.474913547E0,8.215233911E0,1.044223180E0,8.643244028E0
1.394957500E1,-2.339850321E0,8.264376835E0,8.330275979E-1,8.629528317E0
1.395956500E1,-2.157579891E0,8.404579618E0,7.000999209E-1,8.705300078E0
1.396955500E1,-1.749125565E0,8.580883110E0,2.255727160E-1,8.760244189E0
1.397954500E1,-1.097993079E0,8.723523597E0,-4.545795017E-1,8.804095369E0
1.398953500E1,-5.686291141E-1,8.738425811E0,-1.054810807E0,8.820206945E0
1.399952500E1,-2.473764350E-1,8.520379631E0,-1.663757240E0,8.684823102E0
1.400951500E1,1.055181228E-1,8.434082914E0,-2.032957599E0,8.676278308E0
1.401950500E1,6.143064299E-1,8.944926079E0,-2.031563038E0,9.193275984E0
1.402949500E1,8.596007811E-1,9.369930949E0,-2.052514635E0,9.630541823E0
1.403948500E1,1.093993364E0,9.201600135E0,-2.548659216E0,9.610511450E0
1.404947500E1,1.365186568E0,8.676561100E0,-2.924048122E0,9.257240642E0
1.405946500E1,1.482612107E0,8.090333877E0,-3.058859771E0,8.775435260E0
1.406945500E1,1.321183932E0,7.236181385E0,-2.444632133E0,7.751391764E0
1.407944500E1,1.060617530E0,5.479801764E0,6.556528227E-1,5.619877004E0
1.408943500E1,5.476353076E-1,1.473783689E0,5.048924536E0,5.288060302E0
1.409942500E1,3.318449834E-1,-5.632433388E0,-7.710425073E-1,5.694640771E0
1.410941500E1,-1.116459244E0,-2.171291729E1,-9.620165466E0,2.377487838E1
1.411940500E1,-4.108356921E0,-5.195525225E1,-1.502525326E1,5.424006884E1
1.412939500E1,-8.386159719E0,-7.920744040E1,-9.593660038E0,8.022583501E1
1.413938500E1,-8.603597204E0,-6.755325665E1,4.039970298E-1,6.810012910E1
1.414937400E1,-2.360180066E0,-3.174716269E1,-7.857079089E-1,3.184446774E1
1.415936400E1,7.891419786E-1,-1.504322994E1,-5.243656697E0,1.595046857E1
1.416935400E1,1.966726041E0,-7.180046945E0,-7.276107928E0,1.040974697E1
1.417934400E1,2.371446189E0,-4.229599814E0,-6.739413053E0,8.302587543E0
1.418933400E1,3.025322481E0,-4.897643618E0,-4.480951735E0,7.295095447E0
1.419932400E1,3.831968685E0,-9.981581866E0,-4.189478559E0,1.148336585E1
1.420931400E1,4.418963063E0,-1.500563001E1,-5.530055659E0,1.659149427E1
1.421930400E1,4.953921314E0,-1.800910612E1,-5.508364828E0,1.947334904E1
1.422929400E1,5.256292530E0,-1.821793826E1,-3.821409198E0,1.934231253E1
1.423928400E1,4.887548400E0,-1.522336278E1,-1.677473785E0,1.607646795E1
1.424927400E1,3.985178599E0,-1.200324381E1,3.495792961E-1,1.265234034E1
1.425926400E1,2.228368915E0,-9.785981392E0,3.119662628E0,1.051015484E1
1.426925400E1,-5.703322984E-2,-7.927413492E0,4.347892495E0,9.041642915E0
1.427924400E1,-2.246752853E0,-6.060245506E0,4.093924531E0,7.650796824E0
1.428923400E1,-3.176182692E0,-4.024321615E0,2.976977702E0,5.928380655E0
1.429922400E1,-2.844143581E0,-2.044507020E0,1.181278480E0,3.696563337E0
1.430921400E1,-2.118025231E0,-2.855353278E-1,-4.373191059E-1,2.181469529E0
1.431920400E1,-1.478431202E0,1.346797367E0,-1.915733789E0,2.769414725E0
1.432919400E1,-9.503005245E-1,2.997989672E0,-2.903623797E0,4.280425717E0
1.433918400E1,-5.310412750E-1,4.463206020E0,-3.361894646E0,5.612891271E0
1.434917400E1,-1.900989925E-1,5.763937268E0,-3.634700001E0,6.816902123E0
1.435916400E1,3.882945880E-2,7.080655974E0,-4.003041258E0,8.133974186E0
1.436915400E1,1.347314334E-1,8.434912049E0,-4.310848630E0,9.473611231E0
1.437914300E1,1.766305525E-1,9.736160191E0,-4.345854741E0,1.066351101E1
1.438913300E1,1.382629872E-1,1.096555015E1,-4.013973212E0,1.167794449E1
1.439912300E1,1.326741637E-1,1.217715287E1,-3.464218581E0,1.266102148E1
1.440911300E1,1.785277365E-1,1.326890639E1,-2.945709132E0,1.359312146E1
1.441910300E1,2.703117547E-1,1.427295284E1,-2.623652680E0,1.451460659E1
1.442909300E1,2.414589248E-1,1.516285696E1,-2.299575576E0,1.533814139E1
1.443908300E1,1.182323633E-1,1.582394901E1,-2.177971909E0,1.597356888E1
1.444907300E1,-1.636288483E-3,1.608238074E1,-2.001167603E0,1.620640752E1
1.445906362E1,-7.391985160E-2,1.587796909E1,-1.683643328E0,1.596715446E1
1.446905363E1,-3.327606574E-1,1.537285386E1,-1.418105916E0,1.544170942E1
1.447904363E1,-5.734470006E-1,1.415710312E1,-1.343609465E0,1.423227658E1
1.448903362E1,-6.535830545E-1,1.262386494E1,-1.620114353E0,1.274417151E1
1.449902362E1,-7.615268947E-1,1.161144762E1,-2.126641835E0,1.182912696E1
1.450901363E1,-8.647835337E-1,1.087373483E1,-2.598264654E0,1.121324836E1
1.451900363E1,-9.961170405E-1,1.030508726E1,-2.804921628E0,1.072635343E1
1.452899362E1,-1.138836173E0,9.654818990E0,-2.773338477E0,1.010959365E1
1.453898362E1,-1.165965791E0,8.895669719E0,-2.646410628E0,9.353924587E0
1.454897363E1,-1.037171950E0,8.082303311E0,-2.633611073E0,8.563600863E0
1.455896363E1,-8.009076729E-1,7.300559814E0,-2.548310137E0,7.773899359E0
1.456895362E1,-6.232692613E-1,6.523218101E0,-2.199874702E0,6.912328672E0
1.457894262E1,-3.720298633E-1,5.677700193E0,-1.809596885E0,5.970705702E0
1.458893262E1,9.781726666E-2,4.722537051E0,-1.409034692E0,4.929229471E0
1.459892263E1,7.423745591E-1,3.068586030E0,-8.634654982E-1,3.273058642E0
1.460891263E1,1.691278184E0,1.677840990E-1,-1.577521773E-1,1.706885804E0
1.461890262E1,2.527725891E0,-3.621886997E0,-1.106046595E0,4.553109121E0
1.462889262E1,3.190716239E0,-8.873988243E0,-2.522713950E0,9.761783809E0
1.463888263E1,3.732649634E0,-1.536881694E1,-3.521745828E0,1.620295964E1
1.464887262E1,4.291615384E0,-2.106384361E1,-3.469502125E0,2.177477704E1
1.465886262E1,4.246364074E0,-2.354728941E1,-1.018475112E0,2.394877320E1
1.466885262E1,2.452702606E0,-2.170550770E1,1.272877452E0,2.188069998E1
1.467884263E1,-9.647145689E-2,-1.835357846E1,2.016288942E0,1.846425114E1
1.468883262E1,-1.483115260E0,-1.409963552E1,1.185532914E0,1.422690553E1
1.469882262E1,-2.260579326E0,-1.048257247E1,8.560247701E-1,1.075766345E1
1.470881263E1,-3.072987229E0,-9.366761173E0,8.921172935E-1,9.898249272E0
1.471880263E1,-3.003146624E0,-9.956409602E0,-2.982097524E-1,1.040374504E1
1.472879262E1,-2.070080694E0,-1.125145560E1,-1.841636703E0,1.158758443E1
1.473878262E1,-6.156843994E-1,-1.210851124E1,-2.481792796E0,1.237555684E1
1.474877263E1,1.297022798E0,-1.177836224E1,-1.342291503E0,1.192534409E1
1.475876263E1,2.992698526E0,-1.003205035E1,6.112007544E-1,1.048674616E1
1.476875262E1,4.159114553E0,-7.900531502E0,1.408774930E0,9.038875964E0
1.477874262E1,4.338732832E0,-6.243270957E0,1.048402843E0,7.674775785E0
1.478873263E1,3.545127966E0,-4.884987904E0,-1.762075979E-1,6.038384572E0
1.479872263E1,2.339352138E0,-3.589233221E0,-1.831784729E0,4.659463364E0
1.480871163E1,1.154244317E0,-2.308712289E0,-3.132093809E0,4.058625876E0
1.481870162E1,2.381183557E-1,-1.453045369E0,-3.154063552E0,3.480827213E0
1.482869162E1,-3.789381659E-1,-8.798855031E-1,-2.133760673E0,2.338958581E0
1.483868163E1,-8.051512896E-1,-1.735266495E-1,-1.078335325E0,1.356903523E0
1.484867162E1,-9.600136998E-1,7.158611637E-1,-5.303139545E-2,1.198705902E0
1.485866162E1,-8.854816539E-1,1.853786048E0,7.263603511E-1,2.179036445E0
1.486865162E1,-7.313144045E-1,3.151636373E0,1.028153862E0,3.394809707E0
1.487864163E1,-6.031000949E-1,4.612273182E0,7.976577904E-1,4.719433396E0
1.488863162E1,-6.473507266E-1,5.910676069E0,4.778327090E-1,5.965188903E0
1.489862162E1,-7.677829769E-1,7.061777068E0,3.982082498E-1,7.114545374E0
1.490861163E1,-8.394667710E-1,8.286478726E0,5.282105649E-1,8.345624035E0
1.491860163E1,-8.744257385E-1,9.555957191E0,5.254448318E-1,9.610256525E0
1.492859162E1,-9.640041322E-1,1.085280413E1,2.319280547E-1,1.089800221E1
1.493858162E1,-1.153016182E0,1.204946605E1,-2.800436229E-1,1.210774558E1
1.494857163E1,-1.444584302E0,1.306510285E1,-8.610668242E-1,1.317289537E1
1.495856163E1,-1.815492632E0,1.378584703E1,-1.216523741E0,1.395799132E1
1.496855162E1,-2.233730519E0,1.403669843E1,-1.264024183E0,1.426941526E1
1.497854162E1,-2.291819683E0,1.379788060E1,-1.203475753E0,1.403860037E1
1.498853163E1,-1.960394091E0,1.289361104E1,-1.020432760E0,1.308165255E1
1.499852163E1,-1.556025800E0,1.175994351E1,-9.181012235E-1,1.189791568E1
1.500851162E1,-1.340582216E0,1.088052111E1,-1.010661478E0,1.100928412E1
1.501850162E1,-1.535221407E0,1.041666734E1,-1.188572881E0,1.059606383E1
1.502849062E1,-1.919040682E0,1.013620447E1,-1.151463527E0,1.038032882E1
1.503848063E1,-2.203950796E0,1.001711540E1,-7.334612098E-1,1.028289674E1
1.504847062E1,-2.349271355E0,1.000373697E1,-2.343716427E-1,1.027855823E1
1.505846062E1,-2.366466700E0,1.014207741E1,-2.405714089E-1,1.041728244E1
1.506845062E1,-2.080464765E0,1.007941748E1,-1.010701166E0,1.034139774E1
1.507844063E1,-1.589645390E0,9.264498049E0,-1.743198828E0,9.560158927E0
1.508843062E1,-1.226990842E0,7.707758158E0,-1.354767707E0,7.921517398E0
1.509842062E1,-1.161233932E0,5.865685253E0,7.415737098E-1,6.025334787E0
1.510841063E1,-6.976926222E-1,4.152325351E0,2.003716258E0,4.662988276E0
1.511840063E1,9.990861470E-2,2.926809762E0,-9.634521550E-1,3.082926721E0
1.512839062E1,8.694610870E-1,7.258207262E-1,-4.984520379E0,5.111577224E0
1.513838062E1,1.501513232E0,-3.495601757E0,-6.219538863E0,7.290846131E0
1.514837063E1,1.867910143E0,-9.433179696E0,-5.195871497E0,1.093028124E1
1.515836063E1,2.231400550E0,-1.629107956E1,-3.980800788E0,1.691819129E1
1.516835062E1,1.857660705E0,-2.162969504E1,-5.231919581E0,2.233086638E1
1.517834062E1,-4.774850554E-1,-2.363041343E1,-6.072537523E0,2.440287161E1
1.518833063E1,-4.280844228E0,-2.291530129E1,-3.879514149E0,2.363233570E1
1.519832063E1,-6.786205981E0,-1.966693677E1,-3.437607318E0,2.108691864E1
1.520831062E1,-6.495815710E0,-1.581327199E1,-5.699693325E0,1.802059091E1
1.521830062E1,-4.552402956E0,-1.568994135E1,-9.539882026E0,1.891845610E1
1.522829063E1,-2.160827288E0,-1.778752238E1,-1.286755116E1,2.205989573E1
1.523828063E1,-2.503753257E-1,-1.973783777E1,-1.398164455E1,2.418948763E1
1.524827062E1,1.511749514E0,-2.036084222E1,-1.326939638E1,2.435007522E1
1.525826062E1,3.527003644E0,-1.968436147E1,-1.261015907E1,2.364169945E1
1.526825063E1,4.556908236E0,-1.951809005E1,-1.130373556E1,2.301077333E1
1.527823963E1,4.076415043E0,-2.061424652E1,-9.401656771E0,2.302076170E1
1.528822962E1,2.678070962E0,-2.297066975E1,-8.170462950E0,2.452713186E1
1.529821962E1,5.970218412E-1,-2.564174568E1,-7.772903742E0,2.680062666E1
1.530820963E1,-1.516043563E0,-2.641170470E1,-6.421447898E0,2.722336361E1
1.531819963E1,-2.668361076E0,-2.399476045E1,-3.415280895E0,2.438304377E1
1.532818962E1,-2.789293190E0,-1.880242594E1,-5.271438865E-1,1.901550047E1
1.533817962E1,-2.246655497E0,-1.320499983E1,1.294746038E-1,1.339538148E1
1.534816963E1,-1.680850552E0,-8.302992432E0,-6.912402928E-1,8.499573816E0
1.535815963E1,-7.732973398E-1,-3.573179106E0,2.436987922E-1,3.664012391E0
1.536814962E1,1.989976179E0,2.351215115E0,4.540594796E0,5.486822287E0
1.537813962E1,5.325149927E0,9.227619660E0,5.275549750E0,1.188854960E1
1.538812963E1,5.613512968E0,1.246579365E1,-5.590441024E-1,1.368283851E1
1.539811963E1,4.896069840E0,1.293016783E1,-5.045760607E0,1.471803112E1
1.540810962E1,4.755272395E0,1.458450535E1,-5.780094879E0,1.639298352E1
1.541809962E1,3.546136903E0,1.567896963E1,-4.078183241E0,1.658423210E1
1.542808963E1,4.605803530E-1,1.449093704E1,-2.589116101E0,1.472762413E1
1.543807963E1,-2.424879800E0,1.286918955E1,-1.708303522E0,1.320660376E1
1.544806962E1,-4.483455513E0,1.184750907E1,-5.996956998E-1,1.268165918E1
1.545805962E1,-6.302195104E0,1.095317276E1,7.951235341E-1,1.266182760E1
1.546804904E1,-8.237281423E0,1.002485243E1,2.414470586E0,1.319773237E1
1.547803904E1,-1.022892727E1,8.880738269E0,4.433033803E0,1.425307876E1
1.548802904E1,-1.176021248E1,7.712704318E0,6.833039839E0,1.563581910E1
1.549801804E1,-1.044228516E1,6.186627225E0,9.215917042E0,1.523971137E1
1.550800804E1,-6.245336779E0,5.174420986E0,9.999526970E0,1.287514674E1
1.551799804E1,-2.783050702E0,5.096065373E0,7.640433902E0,9.596430779E0
1.552798804E1,-6.453611384E-1,5.881683235E0,4.047411100E0,7.168837094E0
1.553797804E1,7.465056901E-1,7.110465079E0,1.028691733E0,7.223170430E0
1.554796804E1,1.586109871E0,8.286725478E0,-8.581913097E-1,8.480687236E0
1.555795804E1,1.903036414E0,9.005752324E0,-2.284989112E0,9.484002202E0
1.556794804E1,2.013074727E0,9.099880802E0,-4.316699354E0,1.027103665E1
1.557793804E1,1.864020429E0,9.612421414E0,-5.931555891E0,1.144799427E1
1.558792804E1,1.988733061E0,1.025814698E1,-6.398518041E0,1.225257817E1
1.559791804E1,2.209072811E0,1.065278726E1,-5.967701624E0,1.240868010E1
1.560790804E1,2.533846464E0,1.093336941E1,-5.477766348E0,1.248858954E1
1.561789804E1,2.672885066E0,1.100207302E1,-5.321850343E0,1.251047627E1
1.562788804E1,2.360422579E0,1.117818297E1,-4.548782945E0,1.229694253E1
1.563787804E1,2.000382761E0,1.132384881E1,-3.792340350E0,1.210838257E1
1.564786804E1,1.722563419E0,1.137378286E1,-3.392228247E0,1.199322199E1
1.565785804E1,1.368349766E0,1.142174406E1,-3.073339232E0,1.190689013E1
1.566784804E1,9.901392858E-1,1.161971558E1,-2.791848423E0,1.199135454E1
1.567783804E1,6.569726124E-1,1.178756225E1,-2.455873259E0,1.205858823E1
1.568782804E1,2.742116100E-1,1.171441007E1,-2.088344180E0,1.190225931E1
1.569781804E1,-2.229685123E-1,1.123791111E1,-1.740889177E0,1.137413980E1
1.570780804E1,-7.842497595E-1,1.033560388E1,-1.378407269E0,1.045656549E1
1.571779804E1,-1.214167460E0,9.400705429E0,-9.673842613E-1,9.528026947E0
1.572778804E1,-1.545707511E0,8.780114704E0,-5.785964607E-1,8.933890518E0
1.573777704E1,-1.939129084E0,8.363849668E0,-1.931545830E-1,8.587870025E0
1.574776704E1,-2.513371269E0,8.167853338E0,1.650616354E-1,8.547403619E0
1.575775704E1,-3.288674058E0,8.252607560E0,3.974552015E-1,8.892630613E0
1.576774704E1,-4.111612650E0,8.677134127E0,4.539912719E-1,9.612706347E0
1.577773704E1,-4.957657101E0,9.259219183E0,1.591361401E-1,1.050413386E1
1.578772704E1,-5.804290073E0,9.856050332E0,-2.597146082E-1,1.144110847E1
1.579771704E1,-6.475583759E0,1.056337865E1,-8.675624961E-1,1.242058043E1
1.580770704E1,-6.860881941E0,1.116383157E1,-1.839696012E0,1.323205644E1
1.581769704E1,-6.415900644E0,1.109066653E1,-3.704069028E0,1.333742076E1
1.582768704E1,-5.034804679E0,1.000795749E1,-5.444741274E0,1.245606996E1
1.583767704E1,-4.512244864E0,8.000470943E0,-5.979811792E0,1.096020247E1
1.584766704E1,-3.864171933E0,4.832838927E0,-7.210590461E0,9.501619421E0
1.585765704E1,-2.182902574E0,8.276780534E-1,-8.645024727E0,8.954695257E0
1.586764704E1,-1.630668943E-1,-5.452340900E0,-8.299974684E0,9.931978245E0
1.587763704E1,3.085431274E0,-1.784496308E1,-3.607554302E0,1.846556367E1
1.588762704E1,7.181286555E0,-3.735761288E1,-1.594455017E0,3.807498396E1
1.589761704E1,9.800044531E0,-5.531880926E1,-1.298563685E0,5.619517593E1
1.590760704E1,7.385254979E0,-5.487536110E1,-3.922054982E0,5.550882598E1
1.591759704E1,2.753366143E0,-3.726506783E1,-6.295067933E0,3.789319445E1
1.592758704E1,-4.695999755E-1,-2.699205489E1,-3.235602390E0,2.718934854E1
1.593757704E1,-4.105536809E0,-2.722638556E1,-1.099896165E-1,2.753440759E1
1.594756704E1,-7.562306914E0,-3.362831955E1,2.952322333E0,3.459434302E1
1.595755704E1,-1.030694901E1,-3.793897581E1,5.791027418E0,3.973833265E1
1.596754704E1,-8.303774205E0,-3.881524422E1,7.550347019E0,4.040524211E1
1.597753704E1,-2.181688838E0,-3.597310448E1,7.347062135E0,3.678047491E1
1.598752604E1,2.232407879E0,-2.898355573E1,4.638444734E0,2.943714180E1
1.599751604E1,4.195194505E0,-2.208966275E1,1.023006923E-1,2.248473533E1
1.600750604E1,4.413069946E0,-1.768256485E1,-3.528085379E0,1.856328830E1
1.601749604E1,4.812066693E0,-1.434939466E1,-5.886375625E0,1.623916657E1
1.602748604E1,5.232420103E0,-1.129802517E1,-5.211350246E0,1.349747251E1
1.603747604E1,5.881953961E0,-6.790594316E0,-2.385791748E0,9.295243721E0
1.604746604E1,6.195963475E0,-1.345105183E0,7.171639234E-2,6.340695117E0
1.605745604E1,5.140319440E0,3.192413685E0,1.754395661E0,6.300181999E0
1.606744604E1,3.331704595E0,6.675303596E0,2.448941969E0,7.852213087E0
1.607743604E1,1.478037976E0,9.712087789E0,2.254189050E0,1.007921692E1
1.608742604E1,-4.209311876E-1,1.271168311E1,2.252049846E0,1.291649329E1
1.609741604E1,-2.068548724E0,1.599523500E1,2.872265180E0,1.638219594E1
1.610740604E1,-2.850117681E0,2.119333604E1,4.082164026E0,2.177027162E1
1.611739604E1,-2.164224813E0,2.882224508E1,5.181397299E0,2.936413729E1
1.612738604E1,-3.763445749E0,2.651903619E1,4.222062169E0,2.711546816E1
1.613737604E1,-7.028777722E0,1.994619979E1,4.382476437E-1,2.115293510E1
1.614736604E1,-8.461473026E0,1.646355605E1,-1.422598478E0,1.856526299E1
1.615735604E1,-9.345108349E0,1.458050819E1,-2.412605179E0,1.748550637E1
1.616734604E1,-9.372746383E0,1.274300313E1,-3.192935257E0,1.613776128E1
1.617733604E1,-8.025565438E0,1.099627843E1,-2.893308724E0,1.391758152E1
1.618732604E1,-5.871927155E0,9.651284932E0,-2.059557168E0,1.148340564E1
1.619731604E1,-3.626283226E0,8.497784235E0,-7.401621920E-1,9.268770524E0
1.620730604E1,-1.095743363E0,7.642693850E0,6.714708567E-1,7.749986833E0
1.621729604E1,9.011242714E-1,6.782233967E0,1.001854475E0,6.914798256E0
1.622728504E1,2.175482165E0,5.824226155E0,6.532794379E-1,6.251488381E0
1.623727504E1,3.505884963E0,4.825289587E0,9.182949856E-2,5.965155625E0
1.624726504E1,4.689064665E0,4.115966780E0,-1.875112890E-1,6.242088628E0
1.625725504E1,5.659686676E0,3.831014419E0,2.592632031E-1,6.839293981E0
1.626724504E1,6.147178400E0,4.399709351E0,9.176222634E-1,7.614937641E0
1.627723504E1,5.298300097E0,6.032242606E0,1.264140542E0,8.127606418E0
1.628722504E1,3.329264844E0,7.962666355E0,1.195043995E0,8.712989730E0
1.629721504E1,1.680696185E0,9.433995382E0,1.358271359E0,9.678321632E0
1.630720504E1,9.352915624E-2,1.036785946E1,1.624995609E0,1.049484960E1
1.631719504E1,-1.517412980E0,1.088910599E1,1.452498654E0,1.108985679E1
1.632718504E1,-2.709137219E0,1.104402446E1,8.087207955E-1,1.140017237E1
1.633717504E1,-3.213858349E0,1.114134084E1,-2.768241459E-1,1.159892205E1
1.634716504E1,-3.120108186E0,1.138779630E1,-1.113176544E0,1.185985420E1
1.635715504E1,-2.637420242E0,1.158046790E1,-1.567859541E0,1.198004198E1
1.636714504E1,-1.933531837E0,1.150602232E1,-1.630445799E0,1.178072360E1
1.637713504E1,-1.242155450E0,1.123139848E1,-1.624768737E0,1.141609108E1
1.638712504E1,-6.967862307E-1,1.089404922E1,-1.763850608E0,1.105789259E1
1.639711504E1,-2.021139426E-1,1.043436218E1,-1.867113606E0,1.060202232E1
1.640710504E1,2.337513627E-1,1.004449206E1,-1.958245971E0,1.023626825E1
1.641709504E1,5.886547679E-1,9.844192178E0,-1.864546679E0,1.003649184E1
1.642708504E1,8.302069011E-1,9.832097797E0,-1.655640281E0,1.000502550E1
1.643707504E1,8.495252976E-1,1.004398218E1,-1.319044143E0,1.016578323E1
1.644706504E1,5.491626734E-1,1.045129221E1,-1.083613021E0,1.052165888E1
1.645705404E1,1.173773725E-1,1.095006672E1,-9.748747639E-1,1.099400379E1
1.646704425E1,-3.374064895E-1,1.130963540E1,-9.455462996E-1,1.135410735E1
1.647703425E1,-6.896333317E-1,1.133595489E1,-1.182266001E0,1.141828447E1
