,Time (s),Linear Acceleration x (m/s^2),Linear Acceleration y (m/s^2),Linear Acceleration z (m/s^2),Absolute acceleration (m/s^2),labels
0,0.053435681,0.0,0.0,0.0,0.0,
1,0.058177764,-0.0558578968,-0.04129362106,-0.0251288414,0.07386965849,
2,0.0629199,-0.09475588799,-0.09141969681,-0.04832839966,0.1402564561,
3,0.067661983,-0.1231565475,-0.1716456413,-0.09466600418,0.2314981938,
4,0.072404066,-0.1457855701,-0.2283859253,-0.2066168785,0.3407405139,
5,0.077146202,-0.219899416,-0.271168232,-0.3721776009,0.5102980793,
6,0.081888285,-0.2294790745,-0.2968168259,-0.5082836151,0.6317539926,
7,0.086630368,-0.2397184372,-0.3184866905,-0.636048317,0.7506371711,
8,0.091372504,-0.1686577797,-0.3014440536,-0.7621245384,0.836748335,
9,0.096114587,-0.09917807579,-0.2694106102,-0.8056797981,0.8553001255,
10,0.100856671,0.03814172745,-0.2201681137,-0.8406376839,0.8698278595,
11,0.105598806,0.1540997028,-0.1295852661,-0.9285097122,0.9500891249,
12,0.110340889,0.2778565884,-0.0787820816,-1.041257858,1.080568752,
13,0.115082973,0.4212098122,-0.06853532791,-1.086401939,1.167212051,
14,0.119825108,0.5842957497,-0.0223736763,-1.01644659,1.172631986,
15,0.124567191,0.6349611282,0.04408740997,-0.7986545563,1.02125826,
16,0.129309275,0.5867421627,0.08269739151,-0.615032196,0.8540315136,
17,0.13405141,0.4369671345,0.07933759689,-0.6364002228,0.7760412196,
18,0.138793493,0.207444191,-0.002500534058,-0.7386074066,0.7671898371,
19,0.143535577,-0.01069116592,-0.07754945755,-0.7451348305,0.7492357006,
20,0.14827766,-0.1506607533,-0.2446055412,-0.8130578995,0.8623187817,
21,0.153019796,-0.3631005287,-0.3768358231,-0.9260702133,1.063697923,
22,0.157761879,-0.5772836208,-0.4372496605,-1.117040634,1.331248821,
23,0.162503962,-0.7000329494,-0.5067410469,-1.319351673,1.577187832,
24,0.167246098,-0.7796933651,-0.5115771294,-1.448365688,1.722613152,
25,0.171988181,-0.8049929142,-0.4314527512,-1.415201187,1.684327601,
26,0.176730264,-0.7506504059,-0.283370018,-1.331605911,1.554653949,
27,0.181472348,-0.4528436661,-0.256231308,-1.201272964,1.309113671,
28,0.186214483,-0.2535660267,-0.1396131516,-1.168604851,1.20392062,
29,0.190956566,0.02299070358,-0.07692432404,-1.220857143,1.223494213,
30,0.19569865,0.2348077297,-0.02859354019,-1.248613358,1.270821615,
31,0.200440785,0.4177026749,0.02969455719,-1.245632648,1.314137735,
32,0.205182868,0.4924292564,0.07942390442,-1.159154415,1.261916672,
33,0.209924952,0.416156292,0.05583333969,-0.9586639404,1.046584909,
34,0.214667035,0.2742085457,-0.02773571014,-0.7142791748,0.765607168,
35,0.219409171,0.01649737358,-0.1702904701,-0.4498167038,0.4812546878,
36,0.224151254,-0.2965641022,-0.3826284409,-0.2117714882,0.5283956412,
37,0.228893337,-0.6389713287,-0.6798644066,-0.07833147049,0.9362883047,
38,0.233635473,-0.9643621445,-0.9972817898,-0.04913187027,1.388156783,
39,0.238377556,-1.224851608,-1.257834911,-0.01184129715,1.755719323,
40,0.243119639,-1.476037741,-1.442335129,0.09659528732,2.06599823,
41,0.247861723,-1.608703852,-1.548438787,0.2818174362,2.250558115,
42,0.252603858,-1.494930029,-1.515228987,0.4862785339,2.183392197,
43,0.257345941,-1.042268991,-1.278195381,0.7471909523,1.810635911,
44,0.262088025,0.02897596359,-1.061484575,1.234871864,1.62864902,
45,0.266830108,0.9515283108,-0.6647369862,1.239269257,1.697960446,
46,0.271572191,1.719812274,-0.1146068573,1.440603733,2.246381113,
47,0.276314327,2.233120203,0.4338588715,1.818941116,2.912663068,
48,0.28105641,2.631205797,0.8993268013,2.042711258,3.450319105,
49,0.285798493,2.958660126,1.2231884,2.032754898,3.792354424,
50,0.290540577,3.183434725,1.396953106,1.97158432,3.996608482,
51,0.295282712,3.278838396,1.423471451,2.108913422,4.150249151,
52,0.300024796,3.222070932,1.352139473,2.448600292,4.266809773,
53,0.304766879,2.911137819,1.188967228,2.867899418,4.255962117,
54,0.309508962,2.370127916,0.9607536793,3.229906559,4.119811932,
55,0.314251098,1.723029137,0.6915757656,3.427973747,3.898475402,
56,0.318993181,1.147712708,0.4146175385,3.509840488,3.715929549,
57,0.323735264,0.7956763506,0.1272842884,3.588174343,3.677539566,
58,0.328477348,0.5291644335,-0.1165990829,3.684416771,3.724048507,
59,0.333219483,0.3183175325,-0.1770200729,3.751311302,3.768951929,
60,0.337961566,0.2584652901,-0.1538660526,3.735189438,3.747281575,
61,0.34270365,0.4177420139,-0.06732821465,3.63254118,3.657102255,
62,0.347445733,0.7536891699,0.03954553604,3.60488224,3.68304048,
63,0.352187816,1.221928835,0.1784958839,3.627408028,3.831848099,
64,0.356929952,1.709246159,0.499263525,4.109604836,4.478798768,
65,0.361672035,2.431540489,0.9314227104,5.40887928,6.002991961,
66,0.366414118,3.143024206,1.305284262,6.642346382,7.463453197,
67,0.371156202,3.463412046,1.542294502,7.352319717,8.272272999,
68,0.375898337,3.428350449,1.70012641,7.676431656,8.577390021,
69,0.380640421,2.569450378,1.964016438,6.098622322,6.903088442,
70,0.385382504,1.577743649,1.948489428,2.748598099,3.720306114,
71,0.390124587,0.5265080929,1.747018576,-0.7328529358,1.966305699,
72,0.394866671,-2.962975979,1.161649466,-2.703035355,4.175530656,
73,0.399608754,-8.945224762,-0.6255552769,-0.9924373627,9.021823395,
74,0.404350889,-7.143698692,-1.46237731,-2.831648827,7.822353449,
75,0.409092973,-10.22439384,-2.015590429,-3.27852726,10.92472312,
76,0.413835056,-12.03870678,-2.330014706,-2.258125782,12.46830227,
77,0.418577139,-10.71990585,-1.991795063,-0.6644434929,10.92360354,
78,0.423319223,-6.383190155,-1.335095167,1.508797646,6.693583943,
79,0.428061306,-1.599967718,-0.2612125874,2.879810333,3.304759639,
80,0.432803441,1.364413142,0.870954752,2.81965065,3.251248251,
81,0.437545525,0.4777526855,2.603882074,0.5677051544,2.70753368,
82,0.442287608,0.6517183781,3.295994282,-0.5001621246,3.396833423,
83,0.447029691,0.4219508171,3.056904554,-0.5330038071,3.131581231,
84,0.451771775,-0.3549759388,2.603916645,-1.774400234,3.170944024,
85,0.456513858,-0.9931004047,2.13249445,-2.875678539,3.715280346,
86,0.461255993,-1.207807302,1.809307098,-3.094450951,3.782593996,
87,0.465998077,-0.9551479816,1.737727165,-2.724784374,3.369933717,
88,0.47074016,-0.6197581291,1.818495274,-2.179297447,2.905230208,
89,0.475482243,-0.550157547,2.038036346,-1.911044121,2.847517359,
90,0.480224327,-0.5137145519,2.285600424,-1.743822098,2.920408781,
91,0.484966462,-0.3247497082,2.47744441,-1.81634903,3.089064094,
92,0.489708546,0.2704362869,2.504617214,-1.699466228,3.038820271,
93,0.494450629,0.9892116785,2.280278683,-1.332654953,2.820315557,
94,0.499192712,1.02826798,1.774486303,-0.6959075928,2.165738686,
95,0.503934796,0.4181842804,0.9099597931,-0.1747350693,1.016581163,
96,0.508676879,-0.2424550056,0.05980181694,0.2190227509,0.3321620876,
97,0.513418962,-1.179389358,-0.394020319,1.011975288,1.603217157,
98,0.518161046,-1.711818814,-0.7474117279,2.245121002,2.920533557,
99,0.522903181,-1.817682981,-1.007827044,4.171058655,4.660194961,
100,0.527645264,-1.626777768,-1.285966158,5.51725769,5.894085789,
101,0.532387348,-1.107804537,-1.563998461,5.632977486,5.950105666,
102,0.537129431,-0.4643362761,-1.817857862,4.998494148,5.339022301,
103,0.541871514,0.1850795746,-1.943054199,3.998813629,4.44974432,
104,0.546613598,0.9168387055,-2.014517546,3.041520119,3.761611196,
105,0.551355681,1.431272268,-2.114131689,2.571310043,3.623496715,
106,0.556097816,1.28932333,-2.669127941,3.380195618,4.495811498,
107,0.5608399,0.8243866563,-2.981790304,3.309080124,4.529977709,
108,0.565581983,0.3803701401,-3.096692562,2.275337219,3.861521168,
109,0.570324066,0.1307131052,-3.328927994,1.919710159,3.845014252,
110,0.57506615,-0.2787197828,-3.564317226,2.020532608,4.106652411,
111,0.579808233,-0.9154065847,-3.701465607,2.393995285,4.502225036,
112,0.584550316,-1.621273994,-3.627582788,2.75810051,4.836838293,
113,0.5892924,-2.045622826,-3.327889919,2.942358017,4.890490237,
114,0.594034483,-2.129697561,-2.946083069,3.086091995,4.768540757,
115,0.598776566,-2.054617643,-2.747674942,2.211428642,4.081860836,
116,0.603518702,-2.174462795,-2.859078169,1.743968964,3.992999395,
117,0.608260785,-1.896899581,-2.783880949,2.561740875,4.232107923,
118,0.613002868,-1.21638,-2.853623867,3.261685371,4.501259928,
119,0.617744952,-0.3645720482,-2.819801092,3.05013752,4.169835712,
120,0.622487035,-0.427696228,-3.600972652,2.6352911,4.482709815,
121,0.627229118,-0.2366905212,-4.561898708,1.614643097,4.844998922,
122,0.631971202,0.2271905541,-5.069365978,0.2243852615,5.07941293,
123,0.636713285,0.5574424267,-5.228744984,-0.7957577705,5.318246571,
124,0.641455368,0.8049713969,-5.118612766,-1.80946064,5.488380764,
125,0.646197452,1.234135628,-4.592334747,-3.214984417,5.74010052,
126,0.650939535,1.927475691,-2.821352959,-8.617696762,9.270377152,
127,0.655681671,3.509462595,1.210531235,-14.59378242,15.058559,
128,0.660423702,3.394682407,1.66801405,-7.665081501,8.547491675,
129,0.665165837,2.041885376,2.281726837,-3.91155386,4.967476909,
130,0.669907921,-0.1472412944,2.180592537,-4.399104118,4.912105542,
131,0.674650004,-2.091287613,1.008286476,-4.800986767,5.332879094,
132,0.679392087,-2.733939886,0.02733898163,-4.085017681,4.915541087,
133,0.684134171,-2.64548564,-0.3132195473,-3.463671684,4.369636403,
134,0.688876254,-2.698892593,0.09025764465,-3.719868422,4.59669324,
135,0.693618337,-2.862892628,0.4433922768,-3.673391104,4.67830665,
136,0.698360421,-2.930158138,0.5781126022,-3.062740326,4.277898924,
137,0.703102504,-2.777315855,0.5823431015,-2.584085464,3.837981831,
138,0.707844587,-2.484720707,0.2985749245,-2.412942886,3.47638855,
139,0.712586671,-2.366753101,-0.1737947464,-2.240335941,3.263560937,
140,0.717328754,-2.42567873,-0.584895134,-2.119996071,3.274202645,
141,0.722070837,-2.565623045,-0.8375043869,-1.462172031,3.069492182,
142,0.726812921,-2.634200335,-0.6566257477,-0.6702628136,2.796322766,
143,0.731555056,-3.183508158,0.3576846123,1.142641068,3.401219058,
144,0.736297139,-3.066653728,0.6490731239,0.3824090958,3.157831175,
145,0.741039223,-3.027170658,0.6470813751,0.04695701599,3.095913671,
146,0.745781306,-2.657369852,0.8615913391,0.1629538536,2.798304509,
147,0.750523389,-2.489022017,1.352796555,0.3329319954,2.852390722,
148,0.755265473,-2.632086515,2.062402248,0.1062917709,3.345546353,
149,0.760007556,-2.91821909,2.252495289,-0.3467583656,3.702698887,
150,0.764749639,-2.993019819,1.635355473,-0.9360542297,3.536771505,
151,0.769491723,-2.650429726,0.6297678947,-1.479547501,3.100071957,
152,0.774233806,-1.985096931,-0.1578221321,-1.8176651,2.69618695,
153,0.778975889,-1.535535336,-0.3893985748,-2.036335468,2.579953906,
154,0.783717973,-0.4603375793,-0.8912410736,-1.625162125,1.909809747,
155,0.788460056,0.4054140747,-1.443051338,-0.8492684364,1.722792679,
156,0.793202139,0.922567904,-1.661678314,-0.4027318954,1.942807077,
157,0.797944223,1.286809206,-1.609097481,-0.221057415,2.072182187,
158,0.802686306,1.479830742,-1.249464035,-0.1568622589,1.943107091,
159,0.807428389,1.759369612,-0.6063475609,-0.1496119499,1.866928636,
160,0.812170473,1.417697906,0.1208786964,-0.8078298569,1.636174835,
161,0.816912556,2.071264505,0.4119381905,-0.3297939301,2.137426902,
162,0.821654639,2.577587843,0.4678010941,0.7274131775,2.718809828,
163,0.826396723,2.627705097,0.1005363464,1.531516552,3.043104432,
164,0.831138806,2.06437397,-0.4451804161,1.92306757,2.856223795,
165,0.835880889,1.211918354,-0.9990358353,2.068595886,2.597288516,
166,0.840622973,0.2739437222,-1.550774097,2.121288776,2.641933295,
167,0.845365056,-0.9441066384,-2.387475491,2.373589039,3.496469861,
168,0.850107139,-1.640306592,-2.531264782,2.771264076,4.096072716,
169,0.854849223,-2.065945387,-2.608048439,3.406448364,4.761715811,
170,0.859591306,-2.248207569,-2.404028893,3.798843384,5.026430467,
171,0.864333389,-2.41622138,-2.224949837,3.699060917,4.946875701,
172,0.869075473,-2.727794647,-1.960656166,3.337786674,4.73559459,
173,0.873817556,-2.726220846,-1.75909853,2.994874477,4.415425333,
174,0.878559639,-2.559659481,-1.655525208,2.498792171,3.941647205,
175,0.883301723,-2.413753033,-1.644164085,1.835843086,3.44960854,
176,0.888043806,-2.021998644,-1.483691692,1.218453884,2.788269969,
177,0.892785889,-1.432812214,-1.362562656,0.5434036255,2.050564638,
178,0.897527921,-0.5189014673,-1.285265923,-0.1176147461,1.391042937,
179,0.902270056,0.3823236227,-1.34961319,-0.3738298416,1.451680359,
180,0.907012087,1.090739608,-1.272074223,-0.488992691,1.745565688,
181,0.911754223,1.358111858,-1.146241188,-0.676030159,1.901408283,
182,0.916496254,0.9748307467,-0.9244747162,-0.9277300835,1.632676206,
183,0.921238337,0.7425612211,-0.9397358894,-1.741851807,2.113894138,
184,0.925980421,0.8375581503,-1.227631569,-2.913761616,3.270869866,
185,0.930722504,0.8914034367,-1.390594482,-3.527955055,3.895487129,
186,0.935464587,0.547441721,-1.400492191,-3.613889694,3.914239331,
187,0.940206671,-0.1332862377,-1.424843311,-3.514656782,3.7948328,
188,0.944948754,-0.7666919231,-1.606412411,-3.402312517,3.839805699,
189,0.949690837,-1.211116433,-1.848963737,-3.424269915,4.075671033,
190,0.954432921,-1.48722887,-2.042677402,-3.319807529,4.171990258,
191,0.959175004,-1.698922753,-2.207110405,-3.134180784,4.192942171,
192,0.963917087,-1.973156929,-2.416706562,-2.662182331,4.101345345,
193,0.968659171,-2.290522099,-2.624259472,-1.897303104,3.966483119,
194,0.973401254,-2.45009923,-2.859182596,-1.033228874,3.904545205,
195,0.978143337,-2.155827522,-3.155880213,-0.1698403358,3.825704898,
196,0.982885421,-1.601627231,-3.338681221,0.4050621986,3.725060733,
197,0.987627504,-1.10725677,-3.458799124,0.6837091446,3.695506343,
198,0.992369535,-0.7436683178,-3.459709167,0.7654614449,3.620574722,
199,0.997111671,-0.4292588234,-3.306392193,0.6418733597,3.395363586,
200,1.001853702,-0.1730828285,-3.056598902,0.3327450752,3.07952493,
201,1.006595785,-0.05064988136,-2.805520058,-0.1592993736,2.810495418,
202,1.011337868,-0.04428625107,-2.604537725,-0.7557201385,2.712322061,
203,1.016079952,-0.02951312065,-2.509400845,-1.378298759,2.863157539,
204,1.020822035,-0.001197576523,-2.209274769,-1.641580105,2.752395625,
205,1.025564118,0.4175646305,-2.186057568,-1.921840668,2.940523671,
206,1.030306202,1.128611565,-2.137286901,-2.747983932,3.659668709,
207,1.035048285,1.891741753,-1.971973419,-3.390663385,4.354763394,
208,1.039790368,2.605341673,-1.576151848,-3.498611689,4.638140104,
209,1.044532452,3.111524343,-1.069807291,-3.406358242,4.735963244,
210,1.049274483,3.39107132,-0.6795465946,-3.277583838,4.764840405,
211,1.054016566,3.538349628,-0.4432926178,-2.883572102,4.586002017,
212,1.05875865,3.673246384,-0.3899011612,-2.296405792,4.349510487,
213,1.063500733,3.63415432,-0.4579491615,-1.428121567,3.931453454,
214,1.068242816,3.35591507,-0.6788847446,-0.4514045715,3.453522338,
215,1.0729849,2.950061798,-1.000386,0.5069236755,3.156043151,
216,1.077726983,1.979890347,-1.222023249,2.193898678,3.197889619,
217,1.082469066,-2.380811214,0.06722974777,10.12282944,10.39925275,
218,1.08721115,-3.889970303,-3.263174534,11.03404427,12.14620557,
219,1.091953181,-5.734882355,-5.493432999,10.71727943,13.338919,
220,1.096695264,-4.908030987,-5.819338799,6.734110832,10.16374542,
221,1.101437348,-4.688168526,-4.241131783,5.639833927,8.471944856,
222,1.106179431,-3.707439661,-3.773694038,4.856673717,7.181445198,
223,1.110921514,-0.9539387226,-3.900960445,2.109318256,4.536156412,
224,1.115663598,2.368716717,-3.580350876,-0.9972443581,4.407292546,
225,1.120405681,3.975021839,-2.240330935,-1.610870838,4.83888274,
226,1.125147764,4.456084728,-1.56500411,-1.357981682,4.914269347,
227,1.129889796,4.932734966,-1.773693919,-1.781068802,5.536250576,
228,1.134631879,5.514560223,-2.062916279,-2.640362263,6.452713453,
229,1.139373962,6.01477623,-2.006364822,-3.273997307,7.135971641,
230,1.144116046,6.294324398,-1.819524169,-3.314221859,7.342564563,
231,1.148858129,6.505524158,-1.519485831,-3.205154419,7.40970287,
232,1.153600212,6.664290428,-1.221239567,-2.936079979,7.384088206,
233,1.158342243,6.713245392,-1.153982162,-2.403672218,7.223363389,
234,1.163084327,6.550912857,-1.305564165,-1.674773216,6.886495653,
235,1.16782641,6.893303871,-1.215426922,1.381419182,7.134649243,
236,1.172568493,5.076991081,-1.739981413,4.512230873,7.011676063,
237,1.177310577,3.265682697,-1.742985725,8.003593445,8.81817389,
238,1.18205266,2.133580685,-2.3970294,7.622735023,8.270671419,
239,1.186794743,3.37780714,-2.413258791,6.630821228,7.823118894,
240,1.191536775,4.017772198,-1.8489151,7.383622169,8.606907506,
241,1.196278858,4.970139503,-0.8218815327,10.19417,11.37096644,
242,1.201020941,4.828470707,-0.4154362977,11.62115383,12.59118474,
243,1.205763025,3.840350151,-0.8528404832,11.73095322,12.37299032,
244,1.210505108,3.618298531,-1.019145727,11.28003788,11.88991156,
245,1.215247191,3.693999767,-0.7060697079,11.51660156,12.11512609,
246,1.219989223,3.543201923,-0.2338368893,10.88119984,11.44593681,
247,1.224731306,2.730786324,-0.07300984859,11.35398197,11.67798917,
248,1.229473389,2.163519382,-0.4161668122,9.827963829,10.07188582,
249,1.234215473,1.334588528,-0.4299069941,8.892264366,9.002128199,
250,1.238957556,0.4320337772,-0.5716515183,7.415724754,7.450262564,
251,1.243699639,0.5117239952,-0.8155201674,4.937626839,5.030615607,
252,1.248441671,0.8555264473,-0.7879158258,3.212370872,3.416440176,
253,1.253183754,0.877767086,-0.733558774,1.740729332,2.082959947,
254,1.257925837,2.023783922,-0.352671206,-0.4225330353,2.09728694,
255,1.262667921,3.202893734,0.0395386219,-1.723948002,3.63759375,
256,1.267410004,3.706663847,-0.01566147804,-2.653211594,4.558413531,
257,1.272152035,3.91770196,-0.2308334708,-3.366032124,5.170284808,
258,1.276894118,4.059165001,-0.4756525159,-3.654694557,5.482687126,
259,1.281636202,4.152197838,-0.4966781735,-3.757856369,5.622181123,
260,1.286378285,4.237503052,-0.2515118122,-4.034059048,5.856050094,
261,1.291120316,4.136072636,-0.02292668819,-4.177301884,5.878560496,
262,1.2958624,3.811768055,0.00746512413,-4.259140491,5.715759718,
263,1.300604483,3.144639969,-0.2018597126,-4.055789948,5.136043222,
264,1.305346566,1.777605534,-0.6047250628,-1.839086533,2.628271886,
265,1.31008865,0.8379745483,-1.530687571,-0.4262924194,1.796366057,
266,1.314830681,-0.3826038837,-3.233564377,-0.5166873932,3.296860654,
267,1.319572764,-2.301822662,-5.656715393,-0.1115684509,6.108130985,
268,1.324314848,-4.42161274,-7.580194473,1.238137245,8.862448381,
269,1.329056931,-4.564994812,-7.286300182,0.5525569916,8.615954225,
270,1.333799014,-4.118188858,-6.053645611,0.3688964844,7.330906442,
271,1.338541046,-3.946544647,-5.053425312,-0.1808738708,6.414439757,
272,1.343283129,-3.285639286,-4.236791134,-1.042076111,5.461844675,
273,1.348025212,-2.136501551,-3.362173557,-0.9483194351,4.09489434,
274,1.352767296,-1.131201982,-2.757399082,-1.320965767,3.260033463,
275,1.357509327,0.4195716381,-2.337432623,-1.12487793,2.62773324,
276,1.36225141,1.918256998,-1.802612066,1.037426949,2.829377113,
277,1.366993493,3.085160494,-1.539307117,1.030949593,3.598685696,
278,1.371735577,3.743259192,-1.161536813,-0.9192323685,4.025685692,
279,1.376477608,4.984123707,-0.2799065113,-0.8468399048,5.063296812,
280,1.381219691,5.541175842,0.02370834351,0.6738758087,5.582051631,
281,1.385961775,5.533142567,-0.3899748921,1.449573517,5.733150134,
282,1.390703858,5.240901947,-0.6426354647,1.783611298,5.5732668,
283,1.395445889,4.648139477,-0.417797029,1.735171318,4.979013402,
284,1.400187973,2.219278336,-0.139673233,1.634068489,2.759508067,
285,1.404930056,-1.137747288,-0.04524099827,0.5453882217,1.262522852,
286,1.409672139,-4.758584023,-0.1946833134,-0.7546930313,4.821989741,
287,1.414414171,-8.131853104,-0.3296990395,-2.728429794,8.583709309,
288,1.419156254,-11.38512993,-0.3960545063,-3.249605179,11.84643307,
289,1.423898337,-14.85219288,-1.128249645,-3.034301281,15.20090671,
290,1.428640421,-15.85139751,-0.8836611509,-3.216227055,16.19851156,
291,1.433382452,-14.51048565,-0.3140044212,-3.197764874,14.86198145,
292,1.438124535,-11.50741196,0.2030336857,-3.787360191,12.11634639,
293,1.442866618,-7.912611485,0.9411302805,-5.03144598,9.42393736,
294,1.44760865,-4.484599113,1.787593126,-6.433954716,8.043810768,
295,1.452350733,-2.056657791,2.567126751,-7.20849514,7.923533505,
296,1.457092816,-0.07247781754,3.754856586,-7.180829525,8.103611151,
297,1.4618349,0.9083337784,5.052173615,-6.822319031,8.537772862,
298,1.466576931,1.670511723,5.766389847,-7.287824631,9.44215278,
299,1.471319014,3.054844379,5.969274521,-8.218292236,10.60682044,
300,1.476061098,4.673613071,5.899330616,-8.239744186,11.15966599,
301,1.480803129,5.937188148,5.490397453,-8.583579063,11.79290027,
302,1.485545212,6.574496269,4.820931435,-8.773925781,11.97694263,
303,1.490287296,6.561220169,3.800401211,-8.661934853,11.51181023,
304,1.495029379,6.073518276,2.727301121,-8.105081558,10.48895337,
305,1.49977141,5.233686447,1.992814541,-6.764114857,8.781573516,
306,1.504513493,4.302653313,1.484270692,-5.033215523,6.785951924,
307,1.509255577,3.244740248,1.085215807,-3.655643463,5.006971315,
308,1.513997608,2.429184675,0.8454152346,-2.382885933,3.506253053,
309,1.518739691,2.243313074,1.304332614,-0.02174854279,2.595035667,
310,1.523481775,2.243147135,2.593421459,4.032183647,5.293018883,
311,1.528223806,-0.3609535694,2.416055202,1.806693077,3.038379518,
312,1.532965889,-2.750649929,2.209743261,1.231145859,3.736945335,
313,1.537707973,-4.370850563,1.942699313,1.485380173,5.008469779,
314,1.542450004,-5.52093029,1.660714507,0.8813877106,5.832279849,
315,1.547192087,-5.814940453,1.590757251,0.04692745209,6.028784561,
316,1.551934171,-5.836769581,1.48629725,-0.6585922241,6.058935746,
317,1.556676202,-6.106925488,1.294797897,-1.086636543,6.336546337,
318,1.561418285,-6.341653824,1.047791839,-0.9113850594,6.491922957,
319,1.566160368,-6.413610458,0.6454901695,-0.2144861221,6.449578356,
320,1.570902452,-6.100913048,0.283856988,0.198433876,6.110735701,
321,1.575644483,-5.742233276,0.2174265385,0.5106649399,5.768994365,
322,1.580386566,-5.066993713,0.9753324986,-0.3373126984,5.171022977,
323,1.58512865,-3.774053574,2.2742064,-4.564315796,6.344168489,
324,1.589870681,-5.355596542,2.101550341,-1.535094261,5.954447292,
325,1.594612764,-6.334004402,2.228870392,-1.432310104,6.865783803,
326,1.599354796,-6.043968201,2.39982152,-2.9609828,7.14535612,
327,1.604096879,-5.386826515,2.290293455,-4.253930092,7.235970235,
328,1.608838962,-5.035031319,2.392986536,-5.152093887,7.590915384,
329,1.613580993,-4.164235115,2.958731174,-4.965372086,7.123893893,
330,1.618323077,-3.370035648,3.718659639,-4.471081734,6.721319934,
331,1.62306516,-2.686215401,4.426435471,-4.076358795,6.589824366,
332,1.627807191,-1.950730085,5.044074059,-3.731279612,6.570424531,
333,1.632549275,-0.9876520634,5.524009705,-3.254844189,6.487229802,
334,1.637291358,-0.04358720779,5.825641155,-2.676865578,6.411365224,
335,1.642033389,0.6546702385,5.936844826,-1.883860111,6.262878613,
336,1.646775473,1.129072189,5.800143242,-0.9895129204,5.991293805,
337,1.651517556,1.246422291,5.380039692,0.181198597,5.525507085,
338,1.656259587,0.7631368637,4.624752045,1.712277412,4.990250824,
339,1.661001671,-0.4120187759,3.601934433,3.571157455,5.088895431,
340,1.665743754,-2.060265064,2.583664417,5.86225462,6.729490559,
341,1.670485785,-3.848798513,1.689713955,8.781242371,9.735430181,
342,1.675227868,-5.299805641,1.050425053,12.21839809,13.35966259,
343,1.6799699,-5.827828407,0.8552594185,15.35450172,16.44553969,
344,1.684711983,-5.385164261,1.150812149,17.27114487,18.12779103,
345,1.689454014,-4.282228947,1.703670025,17.62170982,18.2144073,
346,1.694196098,-3.015660524,2.340363503,16.5657444,16.99986462,
347,1.698938181,-1.79377079,2.88937521,14.65886497,15.04820338,
348,1.703680212,-0.8524975777,3.190201759,12.44608498,12.87669098,
349,1.708422296,-0.2920622826,3.105000973,10.31068802,10.77202947,
350,1.713164379,-0.0763297081,2.847019196,8.412449837,8.881478299,
351,1.71790641,0.1562428474,2.584947109,6.895989895,7.366209338,
352,1.722648493,0.5660128593,2.447296619,5.901665688,6.413991674,
353,1.727390577,1.212620735,2.491492748,5.931445122,6.546756937,
354,1.732132608,1.583985329,2.520207882,7.708275795,8.263048652,
355,1.736874691,1.604203701,2.324269295,9.177301407,9.602008039,
356,1.741616723,1.664431572,1.878637314,10.99845409,11.28120575,
357,1.746358806,1.748920918,1.458810329,12.74193764,12.94387217,
358,1.751100889,2.175644398,1.138312817,13.45577812,13.67798046,
359,1.755842921,3.597136497,1.892477512,14.12405205,14.69726874,
360,1.760585004,3.785644531,1.149057388,13.92149162,14.47271109,
361,1.765327035,3.047326088,-0.3004932404,13.61519623,13.95528792,
362,1.770069118,2.218284607,-1.741093159,12.95236492,13.25578927,
363,1.77481115,1.711307526,-2.785444975,12.2465477,12.67537801,
364,1.779553233,1.432449341,-3.637318134,11.51183987,12.15748541,
365,1.784295316,1.182481289,-4.432841301,10.85327625,11.78312138,
366,1.789037348,0.9837274551,-5.107193947,10.08296585,11.3453669,
367,1.793779431,0.9707984924,-5.693935394,9.340873718,10.98249843,
368,1.798521462,1.072915077,-6.14116478,8.621339798,10.63919882,
369,1.803263546,1.218105793,-6.493009567,8.0160923,10.38752573,
370,1.808005577,1.417468548,-6.943979263,7.665277958,10.43956662,
371,1.81274766,1.75827837,-7.179893017,7.664232254,10.64813893,
372,1.817489743,2.311917305,-6.859596729,7.926722527,10.73461499,
373,1.822231775,2.968658447,-6.058691502,7.989277363,10.45701814,
374,1.826973858,3.530922413,-5.060292244,7.646992207,9.826009388,
375,1.831715889,3.881869316,-3.993064165,6.831342697,8.813666312,
376,1.836457973,4.03110981,-3.036853313,5.568676472,7.515482818,
377,1.841200004,3.942410946,-2.265245676,4.104494572,6.125423882,
378,1.845942087,3.78690815,-1.55557394,2.583431244,4.840929726,
379,1.850684118,3.417794228,-1.193329811,1.163465023,3.802499741,
380,1.855426202,2.927182674,-1.338430405,-0.08669757843,3.219830869,
381,1.860168233,2.539477825,-1.594038963,-1.412912846,3.314548318,
382,1.864910316,2.159963131,-1.750963688,-2.770632505,3.925266748,
383,1.8696524,1.815947533,-1.861196518,-3.862193823,4.655991736,
384,1.874394431,1.732094288,-1.874242306,-4.617650032,5.27594794,
385,1.879136514,2.948583603,-0.4647498131,-4.609133244,5.491288274,
386,1.883878546,3.223066807,-0.2240753174,-5.037231445,5.984318677,
387,1.888620629,2.748744011,-0.6965136528,-5.117352486,5.850471893,
388,1.89336266,1.809204578,-1.487502098,-5.275122643,5.771724404,
389,1.898104743,0.9687411785,-2.099439621,-5.197508335,5.68860256,
390,1.902846775,0.328053236,-2.358529329,-4.971543312,5.512397158,
391,1.907588858,-0.3196213245,-2.313515425,-4.66874218,5.220312726,
392,1.912330889,-0.8104548454,-2.144763947,-4.09972477,4.697296311,
393,1.917072973,-0.6245176792,-2.03875947,-3.499480963,4.097917705,
394,1.921815004,-0.1089441776,-1.986999035,-2.692053795,3.347713792,
395,1.926557087,0.4996352196,-1.882614136,-1.594324589,2.517090032,
396,1.931299171,0.6306502819,-2.164441109,0.2808895111,2.271876759,
397,1.936041202,-0.00519990921,-2.791421175,2.246451855,3.583099936,
398,1.940783285,-0.2668712139,-3.487687588,2.91826725,4.555377997,
399,1.945525316,0.5304877758,-3.643356085,2.485771656,4.442355408,
400,1.9502674,2.455567122,-2.979260445,1.410388947,4.110352742,
401,1.955009431,5.291581154,-1.623522758,-0.4301424026,5.551727636,
402,1.959751462,7.347707748,-0.2117667198,-2.949770689,7.920530375,
403,1.964493546,7.896586418,1.202815056,-5.732769012,9.831962249,
404,1.969235629,7.668446541,2.895585537,-8.306756973,11.67011994,
405,1.97397766,7.260708809,4.63183403,-10.3651371,13.47619553,
406,1.978719743,6.969737053,6.061754704,-11.88157558,15.04971571,
407,1.983461775,6.702317238,7.014468193,-12.82215309,16.0789126,
408,1.988203858,6.544052124,7.614807129,-13.15444374,16.54839255,
409,1.992945889,6.446278572,7.833717823,-13.0769062,16.55074374,
410,1.997687973,6.207695961,7.729589462,-12.39962864,15.87554197,
411,2.002430004,5.991150856,7.510098934,-11.24524117,14.79023068,
412,2.007172087,5.705696106,7.224275589,-9.646905899,13.33446359,
413,2.011914118,5.396603584,6.628649235,-7.533811092,11.39388566,
414,2.016656202,5.221196175,5.8787117,-5.090291977,9.366494177,
415,2.021398233,4.82811451,5.147050858,-2.797388554,7.591324322,
416,2.026140264,4.306502342,4.675919533,-0.7609777451,6.402286547,
417,2.030882348,3.597502708,4.361083031,0.9891529083,5.739293895,
418,2.035624379,2.864457369,4.320951939,2.477961063,5.745957945,
419,2.040366462,2.196884871,4.544746876,3.768157959,6.299209609,
420,2.045108493,1.877601147,4.643892288,4.841509342,6.966443451,
421,2.049850577,2.23935008,4.927476883,5.668300152,7.837368425,
422,2.054592608,2.813781261,5.561600208,6.160672665,8.763712087,
423,2.059334691,3.321932077,6.405434608,5.926428318,9.337418158,
424,2.064076723,3.79375124,6.951387882,5.342694283,9.55294322,
425,2.068818806,3.974215031,6.989751816,4.334214211,9.134354295,
426,2.073560837,3.875612736,6.791300297,3.335192204,8.500919999,
427,2.078302921,3.415581703,6.349014282,2.230265617,7.546539966,
428,2.083044952,3.065534353,5.826616764,1.342789173,6.719378435,
429,2.087787035,2.725180387,5.143496037,0.3696651459,5.832564783,
430,2.092529066,2.515239,4.134434223,-0.1478056908,4.84167534,
431,2.09727115,2.087516785,2.95834589,-0.1247143745,3.622856664,
432,2.102013181,1.306862354,1.664496899,-0.0310125351,2.116459524,
433,2.106755212,0.1686120033,0.2994923592,0.1067528725,0.3598914512,
434,2.111497296,-0.8651129007,-0.6245794296,0.5913305283,1.219914582,
435,2.116239327,-1.77889955,-1.409291267,1.206280708,2.570155372,
436,2.12098141,-2.123668671,-1.789055824,1.768274784,3.292033578,
437,2.125723441,-2.265184164,-2.033361435,2.272856236,3.798880557,
438,2.130465525,-2.176944017,-1.864291191,2.467151165,3.781732641,
439,2.135207556,-1.546569824,-1.222327709,2.69562912,3.33951787,
440,2.139949587,-0.7757204771,-0.9297485352,3.758388996,3.948627919,
441,2.144691671,-0.5416409969,-1.468843937,4.331933498,4.606139958,
442,2.149433702,-0.9156461954,-2.333768606,4.431636333,5.09158958,
443,2.154175785,-1.531131268,-2.534002781,4.705728531,5.559623554,
444,2.158917816,-1.414334059,-2.21873951,4.406639099,5.132408206,
445,2.1636599,-1.108418703,-1.356222153,3.440988064,3.861130586,
446,2.168401931,-0.6405745745,-0.9645733833,2.469939232,2.727881487,
447,2.173144014,-0.5371524096,-0.8732047081,1.394639492,1.730906839,
448,2.177886046,-1.026582003,-0.8560519218,-0.2561516762,1.360995658,
449,2.182628077,-1.033787251,-0.3302226067,-1.99202776,2.268465923,
450,2.18737016,0.09768402576,0.03812122345,-2.903551102,2.905443924,
451,2.192112191,1.281638861,-0.927687645,-2.873608589,3.280370232,
452,2.196854275,-0.5018290877,-1.821825027,-2.632310867,3.240360993,
453,2.201596306,-2.768487215,-2.295878887,-3.309916019,4.887854885,
454,2.206338337,-3.31921792,-2.574230671,-4.600198746,6.229422096,
455,2.211080421,-3.118443489,-3.099917173,-4.114465237,6.021876822,
456,2.215822452,-2.192052126,-2.514009714,-4.219108582,5.37830964,
457,2.220564535,-2.147392273,-2.842581749,-4.013318062,5.366403492,
458,2.225306566,-2.756933928,-3.607685566,-1.564593792,4.802502843,
459,2.230048598,-2.436450481,-4.117641449,-0.1629786491,4.787256426,
460,2.234790681,-1.711529255,-4.468365669,0.1347961426,4.786835504,
461,2.239532712,-1.194031,-4.458348751,0.04635572433,4.615704981,
462,2.244274796,-1.043921709,-4.182803154,-0.0007014274597,4.311103716,
463,2.249016827,-1.294974804,-3.934525728,-0.1508874893,4.144902832,
464,2.253758858,-1.763919115,-3.886216164,-0.3452806473,4.281740936,
465,2.258500941,-2.116523743,-3.696323633,-0.6950230598,4.31573148,
466,2.263242973,-2.126116991,-3.313043356,-1.203658581,4.116481959,
467,2.267985056,-1.952569485,-2.746878386,-1.614411831,3.736869548,
468,2.272727087,-1.540852785,-2.212234497,-1.923186779,3.311624399,
469,2.277469118,-1.002647042,-1.844601154,-1.867663383,2.809985947,
470,2.282211202,-0.6136927009,-1.565685749,-1.329046249,2.143444548,
471,2.286953233,-0.5519844294,-1.536237717,0.2778272629,1.655868691,
472,2.291695264,0.5866017342,-0.5623865128,2.400110245,2.533951336,
473,2.296437348,0.4197978973,-1.504573822,3.284360886,3.636894154,
474,2.301179379,0.00662112236,-2.878982306,3.133498192,4.255278354,
475,2.305921462,-0.2899320126,-4.159702301,2.285457611,4.755049978,
476,2.310663493,-0.5767349601,-5.085613251,1.209802151,5.259249623,
477,2.315405525,-1.094933867,-5.783085823,0.1744046211,5.888410548,
478,2.320147608,-1.553897381,-6.180064678,-1.083558083,6.4638916,
479,2.324889639,-2.0420506,-6.202308655,-2.541986465,7.007160516,
480,2.329631671,-2.720270634,-6.13460207,-3.884513855,7.753880497,
481,2.334373754,-3.420851231,-6.164322376,-4.689583778,8.467188997,
482,2.339115785,-3.768909693,-6.021101952,-4.977696896,8.673858159,
483,2.343857816,-3.65220046,-5.852026939,-4.832889557,8.42268419,
484,2.3485999,-3.170779705,-5.58672142,-4.501292706,7.843910771,
485,2.353341931,-2.246916533,-5.071713448,-3.946350336,6.807686257,
486,2.358084014,-1.101966023,-4.235165596,-3.324920654,5.496003466,
487,2.362826046,0.00935292244,-2.984143734,-1.720092297,3.444403985,
488,2.367568077,0.6919195652,-1.783789635,-1.345081329,2.338782146,
489,2.37231016,0.7669883966,-1.437603474,-0.4137263298,1.681114043,
490,2.377052191,0.3327758312,-1.726779938,-0.618350029,1.864099103,
491,2.381794223,0.06830394268,-2.355110168,-0.7968997955,2.487219053,
492,2.386536306,0.09600925446,-2.816564083,-1.244914532,3.080919214,
493,2.391278337,0.3515043259,-2.857086182,-1.256108761,3.140749267,
494,2.396020368,0.2779093981,-2.784576893,-1.143315792,3.022957675,
495,2.400762452,-0.2338719368,-2.700863361,-0.5806932449,2.772465261,
496,2.405504483,-0.8004053235,-2.681274891,0.1429023743,2.801839541,
497,2.410246566,-1.263763189,-2.556901932,0.9347910881,3.001446196,
498,2.414988598,-1.649039149,-2.683542252,1.476871014,3.478775233,
499,2.419730629,-2.895174742,-3.937222481,1.554639339,5.128417019,
500,2.42447266,-3.177662373,-4.56502533,1.069216728,5.663940221,
501,2.429214743,-1.408775926,-3.068777084,0.4475975037,3.406227521,
502,2.433956775,-0.01315975189,-1.214123726,-0.100338459,1.218333865,
503,2.438698806,0.07210159302,0.2626404762,-1.478682518,1.503556001,
504,2.443440889,-0.2714016438,2.137177944,-2.65679121,3.420486508,
505,2.448182921,-0.6708645821,3.611438274,-3.788658142,5.276976048,
506,2.452924952,-0.8707302809,4.857270718,-5.014564991,7.035418402,
507,2.457667035,-0.8250585794,5.580386162,-6.045027733,8.268239938,
508,2.462409066,-0.6643236876,5.823581696,-6.624343872,8.845188605,
509,2.467151098,-0.3426285982,5.84830904,-6.739514828,8.929791324,
510,2.471893181,-0.2799376249,5.39610815,-6.468871117,8.428679717,
511,2.476635212,-0.6362537146,4.495427132,-5.786955357,7.355442623,
512,2.481377243,-1.103313923,3.632984638,-4.794325352,6.115671228,
513,2.486119327,-1.994711876,2.408294678,-3.574890614,4.749589627,
514,2.490861358,-3.113321304,1.144134998,-2.567500591,4.194505182,
515,2.495603389,-3.201462746,0.5252299309,-1.670170784,3.648931438,
516,2.500345421,-2.489453077,0.4176468849,-0.7142224312,2.623341233,
517,2.505087504,-1.720352173,0.2319927216,0.0997672081,1.738788578,
518,2.509829535,-0.4264440536,0.5286798477,1.00012207,1.208966942,
519,2.514571566,0.7175095081,0.8254609108,2.075730324,2.34624423,
520,2.51931365,1.559777617,1.12436533,2.920435905,3.496576824,
521,2.524055681,1.438782692,0.7810020447,3.639985085,3.991184191,
522,2.528797712,0.6073644161,-0.07712078094,4.16213131,4.206920036,
523,2.533539743,-0.9284470081,0.1858658791,3.535096645,3.659708768,
524,2.538281827,-1.304115534,0.5129466057,3.609258175,3.871766537,
525,2.543023858,-0.6293224096,0.3154706955,3.707274914,3.773520338,
526,2.547765889,0.6759507656,0.4884252548,3.175266266,3.282953628,
527,2.552507973,1.764427304,1.238987446,2.000478268,2.941123408,
528,2.557250004,1.998315334,2.554214954,0.4176836014,3.269822289,
529,2.561992035,1.810226321,3.484561443,-0.2453918457,3.934374784,
530,2.566734066,1.82495594,3.689968109,-0.4156427383,4.137521929,
531,2.57147615,1.976118922,3.180322647,0.4744234085,3.774198684,
532,2.576218181,2.107839108,2.36835289,1.711480618,3.602949766,
533,2.580960212,2.081170797,1.339263439,2.945937157,3.847524422,
534,2.585702296,2.103340626,0.4996337891,3.777004719,4.351946732,
535,2.590444327,1.565462828,0.5621461868,4.330201626,4.638677432,
536,2.595186358,0.920984149,0.6645374298,4.25127697,4.400361084,
537,2.599928389,0.3114694357,0.4081101418,3.892241001,3.925953019,
538,2.604670421,-0.3677327633,0.004393577576,3.594705582,3.613468542,
539,2.609412504,-0.9531790018,-0.6604537964,3.379361153,3.572790398,
540,2.614154535,-1.351388931,-1.212873936,3.520798683,3.961481869,
541,2.618896566,-1.517582178,-1.686095238,3.547638416,4.21090384,
542,2.62363865,-1.649535179,-1.94042778,2.8427701,3.81674837,
543,2.628380681,-1.99221766,-1.907610893,2.074860096,3.451514876,
544,2.633122712,-2.624925852,-1.760191441,1.018456459,3.320506466,
545,2.637864743,-3.153630018,-1.612700939,-0.3995938301,3.564528277,
546,2.642606827,-3.457704067,-1.248217106,-1.493488073,3.967904987,
547,2.647348858,-3.566979885,-0.8077902794,-2.171344757,4.253305619,
548,2.652090889,-3.417255402,-0.2756118774,-2.220137119,4.084434504,
549,2.656832921,-3.256447315,0.001467704773,-2.572397232,4.149901058,
550,2.661574952,-2.713417768,-0.09764862061,-3.316123724,4.285889382,
551,2.666317035,-2.357619047,-0.02457714081,-3.519776821,4.236484448,
552,2.671059066,-1.945631027,0.1705389023,-3.68574357,4.171243133,
553,2.675801098,-1.382368088,0.6185340881,-3.616323233,3.920627459,
554,2.680543129,-0.4652533531,1.074649811,-3.689843416,3.871211352,
555,2.685285212,0.8815581799,1.526171684,-3.750742197,4.144202199,
556,2.690027243,2.345973492,1.957857132,-3.731402397,4.822878811,
557,2.694769275,3.185349941,2.005619049,-3.762139797,5.321903595,
558,2.699511306,3.207939148,1.875073433,-3.237545252,4.928333716,
559,2.704253389,3.042618275,1.826510429,-2.3687644,4.266697915,
560,2.708995421,2.800044537,1.68241787,-1.521274328,3.603478164,
561,2.713737452,2.52633667,1.504662514,-0.8904895782,3.072353811,
562,2.718479483,3.275785685,1.793850899,-0.3973145485,3.755866311,
563,2.723221514,4.376746178,1.743293762,-0.0940425396,4.712093404,
564,2.727963598,5.047610283,1.420633316,-0.1250166893,5.245207123,
565,2.732705629,5.313830853,0.5634775162,-0.430981636,5.360974763,
566,2.73744766,3.760011911,-0.4148397446,-0.1646649837,3.7864094,
567,2.742189691,1.726067543,-1.183209896,0.9779126644,2.309893504,
568,2.746931775,0.2149221897,-1.949550629,2.392310381,3.093555909,
569,2.751673806,-0.417134285,-2.692329407,3.364201307,4.329028653,
570,2.756415837,-0.5077576637,-3.165503979,3.762477875,4.943123814,
571,2.761157868,-0.2209510803,-3.090127945,3.867106438,4.955019909,
572,2.7658999,0.5086166859,-2.45548296,3.573357105,4.365428788,
573,2.770641931,1.335055351,-0.9546928406,3.360530138,3.739916312,
574,2.775384014,3.165010214,-0.4306211472,2.965244055,4.358370857,
575,2.780126046,4.61703968,0.06195354462,1.930289268,5.004688833,
576,2.784868077,5.640040398,0.6327323914,1.108932257,5.782744739,
577,2.789610108,6.740438461,1.042263985,0.3131194115,6.827727926,
578,2.794352139,7.860304832,0.9138307571,-1.746110082,8.103602849,
579,2.799094223,9.535230637,0.04669284821,-4.397183895,10.50038236,
580,2.803836254,11.56006622,-2.633798122,-7.682390213,14.12767295,
581,2.808578285,12.91454124,-8.568076134,-5.347120285,16.39478574,
582,2.813320316,10.4499073,-8.018761635,-3.738672495,13.69228881,
583,2.818062348,8.271699905,-7.083665848,-2.509259224,11.17567551,
584,2.822804431,6.573986053,-6.063615799,-3.191297054,9.495741471,
585,2.827546462,4.594958305,-5.330905914,-2.924789667,7.621456179,
586,2.832288493,2.940908909,-4.418807507,-1.476836801,5.509614499,
587,2.837030525,0.1116903424,-4.983999252,-0.4739124775,5.007725663,
588,2.841772556,-1.849619627,-4.199306011,0.5720977783,4.624127984,
589,2.846514587,-3.634652138,-2.877884388,1.046125412,4.752609082,
590,2.851256671,-5.216736317,-1.506685257,1.304174423,5.584380824,
591,2.855998702,-6.415213585,-0.3830938339,1.297091722,6.556231628,
592,2.860740733,-6.296088219,0.6288385391,0.9292628765,6.395286879,
593,2.865482764,-5.133947849,1.473938942,0.4966011047,5.364375936,
594,2.870224796,-3.625869751,1.765248299,-0.2748804092,4.042102454,
595,2.874966827,-4.582629204,-0.1337051392,-1.058448911,4.705176041,
596,2.87970891,-3.824862242,-1.121840477,-0.7096467018,4.048665912,
597,2.884450941,-1.577072144,-1.021251678,-0.1915974617,1.888602956,
598,2.889192973,-0.6884284616,-1.339225769,-0.5335254669,1.597532106,
599,2.893935004,-0.5590194464,-1.804889679,-0.6161800623,1.987412228,
600,2.898677035,-0.8316860199,-2.305853367,0.07669091225,2.452456499,
601,2.903419066,-0.7309856415,-2.655965805,1.425684452,3.101785054,
602,2.908161098,-0.383236587,-2.652650833,3.266573429,4.225390951,
603,2.912903181,0.1140756011,-2.339835167,5.146359444,5.654454649,
604,2.917645212,0.5165263414,-1.902424812,6.636516094,6.923103747,
605,2.922387243,0.5860046744,-1.49867487,7.430448532,7.602696445,
606,2.927129275,0.5192300677,-1.248240471,7.615860462,7.734923058,
607,2.931871306,0.5514692068,-1.198534012,7.102142811,7.223644134,
608,2.936613337,0.5212473869,-1.508951187,5.778503895,5.994976212,
609,2.941355368,0.562060833,-1.690438271,3.742280483,4.144654044,
610,2.946097452,0.4547259808,-0.9623813629,0.5050308704,1.178138271,
611,2.950839483,0.9169228077,0.1759376526,-3.963382006,4.071866699,
612,2.955581514,1.231278419,1.112985611,-7.550443172,7.730716372,
613,2.960323546,1.082475901,1.966838837,-10.26060295,10.50334147,
614,2.965065577,0.9268704653,2.365089417,-12.02891922,12.29421142,
615,2.969807608,-0.0827614665,2.552156448,-12.51453972,12.77239431,
616,2.974549639,-1.184866786,2.917739868,-11.86474133,12.27555302,
617,2.979291671,-1.900960922,3.217460632,-10.18393993,10.84796469,
618,2.984033754,-2.188090324,3.049345016,-7.710519314,8.575450565,
619,2.988775785,-2.744699001,2.408453941,-4.716982841,5.965228422,
620,2.993517816,-2.961951733,1.629274368,-1.930710077,3.892985286,
621,2.998259848,-2.720139027,0.9551486969,0.2043949366,2.890197683,
622,3.003001879,-1.737330437,0.5313024521,1.718796253,2.500971792,
623,3.00774391,-0.6039495468,0.2469778061,2.70644927,2.783993668,
624,3.012485941,0.1333734691,0.2852468491,3.732550859,3.745809681,
625,3.017227973,0.6661911011,0.4441280365,4.126770496,4.203723947,
626,3.021970004,0.4305173159,0.1827545166,3.710968971,3.740325531,
627,3.026712087,-0.1764659584,-0.4581098557,3.474088192,3.508602805,
628,3.031454118,-0.4937680066,-0.9979991913,3.717866182,3.881022826,
629,3.03619615,-0.758369267,-1.249170303,4.775839806,4.994416507,
630,3.040938181,-0.9430285692,-1.561487675,4.58897543,4.938242818,
631,3.045680212,-0.8879740238,-2.042087078,3.515817881,4.161681496,
632,3.050422243,-0.4025904536,-2.544088364,2.030206442,3.279665055,
633,3.055164275,0.331107229,-3.006735325,0.578545332,3.0797409,
634,3.059906306,1.282647729,-3.319280624,-0.6751871109,3.621972763,
635,3.064648337,2.520864248,-3.471734524,-1.523878813,4.55301041,
636,3.069390368,3.71023798,-3.509392262,-2.082516909,5.515303853,
637,3.0741324,4.62029171,-3.628295422,-2.302509069,6.309767917,
638,3.078874483,5.154224873,-3.880878448,-2.235153913,6.828115742,
639,3.083616514,5.405888557,-4.171411037,-2.062423468,7.132874014,
640,3.088358546,5.458906651,-4.430597305,-1.800816536,7.257602531,
641,3.093100577,5.231513977,-4.749379635,-1.619641304,7.249040168,
642,3.097842608,5.0896492,-5.187428951,-1.403636336,7.401631109,
643,3.102584639,5.148618698,-5.581933022,-1.104987144,7.673802665,
644,3.107326671,5.12640667,-5.89447403,-0.824473381,7.8552292,
645,3.112068702,4.668554306,-6.098360538,-0.6467279196,7.707376828,
646,3.116810733,4.04877758,-6.408559322,-0.6362524033,7.607039477,
647,3.121552764,3.49019289,-6.752781391,-1.027553558,7.670552082,
648,3.126294796,2.854468822,-7.022850037,-1.706504583,7.770493729,
649,3.131036827,2.22860384,-7.153730869,-2.30138731,7.838298538,
650,3.135778858,1.408876657,-6.996876717,-2.849915981,7.68526111,
651,3.140520889,0.3033339977,-6.721957207,-3.581218243,7.622456579,
652,3.145262921,-0.9311352968,-6.355384827,-3.864767551,7.49628958,
653,3.150005004,-0.545473814,-3.906398296,-3.82911396,5.497235947,
654,3.154747035,5.945168495,6.587303162,-4.577582359,9.984580694,
655,3.159489066,12.01195717,17.8715744,-5.763319016,22.29116715,
656,3.164231098,13.67069817,26.8138237,-6.655260086,30.82469167,
657,3.168973129,8.717425346,29.47488785,-6.545647621,31.42623142,
658,3.17371516,-0.3389246464,26.2803154,-4.798330784,26.71692021,
659,3.178457191,-8.645138741,22.1215477,-2.836435318,23.91958741,
660,3.183199223,-13.84199715,17.94459534,-1.752121568,22.73058109,
661,3.187941254,-15.29257679,13.20229816,-0.3817238808,20.20666461,
662,3.192683285,-11.74835873,7.805711746,0.3329808712,14.10900226,
663,3.197425316,-6.168233871,3.621617317,1.561080694,7.321215338,
664,3.202167348,-1.342910767,1.568385124,4.127335072,4.614990359,
665,3.206909379,2.576481342,0.6412744522,10.27390671,10.61143949,
666,3.21165141,5.014823437,-0.1344537735,18.39878082,19.07043963,
667,3.216393441,5.906188011,0.1641187668,14.07462692,15.26450506,
668,3.221135473,6.352878094,-0.8626804352,11.16272354,12.87282698,
669,3.225877504,6.797403812,-2.389508724,9.297496796,11.76256338,
670,3.230619535,7.167187691,-3.41014576,6.335201263,10.15541474,
671,3.235361566,7.110764027,-4.182474613,3.854277134,9.105575828,
672,3.240103598,6.441828251,-4.940588474,2.35439992,8.452796263,
673,3.244845629,5.522519588,-5.46390152,1.110530615,7.847657018,
674,3.24958766,4.553332329,-5.529524803,-0.1236588955,7.164061095,
675,3.254329691,3.653923035,-5.154036045,-1.218638659,6.434308143,
676,3.259071723,2.828505516,-4.366398335,-1.871943474,5.529018922,
677,3.263813754,2.135737419,-3.435080528,-2.115172625,4.564549024,
678,3.268555785,1.517551064,-2.644839764,-2.338719368,3.842882628,
679,3.273297816,1.035944581,-1.892713547,-2.595520258,3.375243866,
680,3.278039848,0.6583798528,-1.1046381,-2.756567478,3.041768174,
681,3.282781879,0.4821534455,-0.2257499695,-2.920179129,2.968312844,
682,3.28752391,0.5068030953,0.6217956543,-3.064849615,3.168088126,
683,3.292265941,0.6676152945,1.387667656,-3.10906148,3.469523741,
684,3.297007973,0.9216409922,1.947529793,-3.119642735,3.791367194,
685,3.301750004,1.099028707,2.315843582,-3.139326096,4.052945093,
686,3.306492035,1.235519052,2.471134186,-3.045680761,4.112077673,
687,3.311234066,1.294955015,2.442101479,-2.814291,3.944743586,
688,3.315976098,1.323046327,2.431938171,-2.317873955,3.610722161,
689,3.320718129,1.466231108,2.512124062,-1.728214383,3.383389708,
690,3.32546016,1.63694191,2.790055275,-0.9948375225,3.384329911,
691,3.330202191,1.699551582,3.157847404,-0.3400275707,3.602234662,
692,3.334944223,1.659065485,3.560398102,0.3391542435,3.942582723,
693,3.339686254,1.517617106,3.880581856,0.9205152988,4.26725036,
694,3.344428285,1.45143342,4.087487221,1.336977482,4.538911713,
695,3.349170316,1.440686941,4.090049744,2.441023588,4.976211604,
696,3.353912348,1.196435213,3.76358223,4.210114479,5.772440761,
697,3.358654379,0.615716815,3.062537193,5.998011589,6.762720183,
698,3.36339641,0.7037500739,2.805464745,7.006299973,7.579850652,
699,3.368138441,0.8408039808,2.937610626,6.885471344,7.533008904,
700,3.372880473,0.7618188858,3.033736229,5.823845863,6.610681066,
701,3.377622504,0.5274701118,2.850651741,4.52623558,5.375058009,
702,3.382364535,0.7403644323,2.370109558,3.12777853,3.993564491,
703,3.387106566,0.5374369621,1.841375351,1.795086861,2.627135038,
704,3.391848598,-0.05725926161,1.446141243,0.8554477692,1.681188271,
705,3.396590629,-0.5917138457,1.174416542,0.2752349377,1.343552664,
706,3.40133266,-0.9413387775,1.102290154,-0.1200695038,1.454502995,
707,3.406074691,-1.13138032,1.095508575,-0.3497126102,1.61321399,
708,3.410816723,-1.452338815,0.8598966599,-0.5766811371,1.783611906,
709,3.415558754,-1.545696139,0.7519721985,-0.7149004936,1.861644826,
710,3.420300785,-1.578785896,0.8768405914,-0.8579972982,1.999393331,
711,3.425042816,-1.723535299,0.9856147766,-1.051591039,2.246743005,
712,3.429784848,-1.991593957,1.109461784,-1.142801762,2.550166231,
713,3.434526879,-2.461927414,1.195730209,-1.172378302,2.977470102,
714,3.43926891,-2.993928909,1.263440132,-1.073139668,3.422209816,
715,3.444010889,-3.530896664,1.369856834,-0.9885549545,3.914202332,
716,3.448752921,-3.867892981,1.514755249,-0.8393843174,4.237882208,
717,3.453494952,-4.024850368,1.561656952,-0.685210228,4.371236207,
718,3.458236983,-3.887438774,1.606142998,-0.2407873869,4.213057573,
719,3.462979014,-3.439020872,1.643117905,0.8564916849,3.906440709,
720,3.467721046,-2.73380661,1.667559624,2.381336927,3.990641457,
721,3.472463077,-1.882624745,1.753650665,3.976745129,4.736461591,
722,3.477205108,-1.221117973,1.834623337,5.196839333,5.644830462,
723,3.481947139,-1.12395525,1.585624695,5.810490608,6.126930894,
724,3.486689171,-1.428896189,1.200864792,6.227417946,6.501119507,
725,3.491431202,-1.874060631,0.898059845,6.694526672,7.009657773,
726,3.496173233,-1.840567231,0.8925733566,6.577548504,6.888288557,
727,3.500915264,-2.202735186,0.5412149429,5.533287525,5.980152736,
728,3.505657296,-2.227524757,0.1147594452,4.44815588,4.976055366,
729,3.510399327,-1.80652988,0.2398366928,3.57332325,4.011198187,
730,3.515141358,-2.213252544,-0.3871746063,1.237804532,2.565258478,
731,3.519883389,-1.94726038,-0.8470163345,-0.2578494847,2.139099347,
732,3.524625368,-2.017957687,-1.477078438,-1.168235898,2.760197285,
733,3.5293674,-1.984487057,-1.882833481,-1.351531863,3.051211099,
734,3.534109431,-1.954039574,-2.17954731,-1.253715038,3.184414943,
735,3.538851462,-2.043637991,-2.446552753,-0.8943945169,3.310893862,
736,3.543593493,-2.377888918,-2.80861187,-0.4533704817,3.707856677,
737,3.548335525,-2.39919734,-3.143871784,0.2875914276,3.965196906,
738,3.553077556,-2.413897514,-3.282813072,0.9172071815,4.17672502,
739,3.557819587,-2.651816368,-3.455497742,1.129404306,4.499794304,
740,3.562561618,-3.062999964,-3.396785259,1.917371273,4.959478952,
741,3.56730365,-3.695733309,-3.322500229,2.165904522,5.42112487,
742,3.572045681,-3.954330444,-3.359578609,1.632650137,5.439581249,
743,3.57678766,-3.915168285,-3.359698296,0.9028148055,5.237479347,
744,3.581529691,-3.677974939,-3.394528389,0.2841681242,5.013090281,
745,3.586271723,-3.311436653,-3.624116421,-0.4442926049,4.929221892,
746,3.591013754,-2.881596327,-3.894993305,-1.072634697,4.962369941,
747,3.595755785,-2.155402422,-4.230722904,-1.716052532,5.048723818,
748,3.600497816,-1.569951296,-4.654877186,-2.276708126,5.414427816,
749,3.605239848,-0.7651546001,-5.116710186,-2.795464039,5.880544523,
750,3.609981879,-0.05829787254,-5.723303795,-2.924644709,6.427530758,
751,3.61472391,1.253624678,-6.031161308,-0.8607527018,6.219917746,
752,3.619465889,2.921868801,-4.270222187,3.78310442,6.409679701,
753,3.624207921,3.045457602,-4.326104641,0.5607753992,5.320193833,
754,3.628949952,2.367881298,-4.382256985,-3.186169147,5.912927529,
755,3.633691983,1.11171329,-4.224084377,-3.463776827,5.574634084,
756,3.638434014,0.6845210791,-3.954823494,-3.112963915,5.079344673,
757,3.643176046,0.6302783489,-3.519619465,-3.298273802,4.864522797,
758,3.647918077,0.6083493233,-3.007221699,-2.181932926,3.764877493,
759,3.652660108,0.9962334633,-2.668839455,-0.9008328915,2.987755855,
760,3.657402087,0.9604250193,-2.530825615,-0.549369812,2.76211906,
761,3.662144118,0.8880503178,-2.399529934,-0.4395521581,2.596070756,
762,3.66688615,1.207377076,-2.210432053,-0.1496270299,2.523124553,
763,3.671628181,1.619810104,-2.030424118,-0.1723822653,2.603098638,
764,3.676370212,1.656860232,-1.716024876,-0.2135416865,2.394896084,
765,3.681112243,1.131785154,-1.604792595,-0.2876378596,1.984699586,
766,3.685854275,0.5847024918,-1.486332417,-0.5652024746,1.694259394,
767,3.690596254,-0.07145595551,-1.33707571,-0.620647192,1.475832086,
768,3.695338285,-0.3897433281,-0.9970178604,-0.5499172211,1.203475561,
769,3.700080316,-0.02007007599,-0.5305252075,-0.6645944118,0.8506147989,
770,3.704822348,0.4305517673,0.01712799072,-0.6607059836,0.7887969252,
771,3.709564379,0.2462725639,0.719543457,-0.3532409072,0.8385535766,
772,3.71430641,-0.243588686,1.200447083,0.09626400471,1.22868849,
773,3.719048441,-0.4010646343,1.397375107,0.6343983412,1.586181353,
774,3.723790421,-1.361632109,1.536450386,1.426460981,2.499902542,
775,3.728532452,-2.091894388,1.960770607,3.074002981,4.203586306,
776,3.733274483,-1.797654867,2.091342926,3.309525013,4.307926887,
777,3.738016514,-1.15630579,2.137096405,2.648369789,3.594173989,
778,3.742758546,-0.5651447773,1.86680603,1.568307519,2.502786816,
779,3.747500577,0.00682258606,1.503777504,0.6351521015,1.632425043,
780,3.752242608,0.4971966743,1.079586983,0.09685075283,1.192515264,
781,3.756984587,1.004137039,0.6209554672,-0.2237874269,1.201647909,
782,3.761726618,1.57118845,0.1905040741,-0.4457982779,1.644281318,
783,3.76646865,2.012136936,-0.1063241959,-0.6134302616,2.106251782,
784,3.771210681,2.444768667,-0.3555326462,-0.6317969561,2.549993077,
785,3.775952712,2.809766054,-0.5402507782,-0.539735496,2.911695483,
786,3.780694743,3.0309062,-0.6532945633,-0.4212997556,3.129006179,
787,3.785436723,3.381149292,-0.6875267029,-0.1545023322,3.453800005,
788,3.790178754,3.542479753,-0.7027578354,-0.08394807577,3.612489261,
789,3.794920785,3.606315613,-0.5936927795,-0.04214811325,3.655100529,
790,3.799662816,3.529626846,-0.5733203888,0.2124507427,3.582191684,
791,3.804404848,3.37956357,-0.6199827194,0.5408035517,3.478260625,
792,3.809146879,3.364901066,-0.6974401474,0.5832214355,3.485560096,
793,3.813888858,3.565145016,-0.8125114441,0.6331762671,3.710976423,
794,3.818630889,3.815637827,-0.9171066284,0.6924663186,3.984932395,
795,3.823372921,3.865592241,-0.8939981461,0.9858807325,4.088275539,
796,3.828114952,3.769677639,-0.8630142212,0.9962804317,3.993474395,
797,3.832856983,3.790717125,-0.8337364197,0.9361598492,3.9926242,
798,3.837598962,3.847268581,-0.7486715317,0.8742957115,4.015766128,
799,3.842340993,3.91326952,-0.6268720627,0.9396125078,4.073023273,
800,3.847083025,4.091819286,-0.4324092865,1.072400093,4.252058892,
801,3.851825056,4.230082035,-0.2848548889,1.182379723,4.40144955,
802,3.856567087,4.309064388,-0.1148118973,1.289476991,4.499329793,
803,3.861309066,4.470242023,0.06335544586,1.521443486,4.722485357,
804,3.866051098,4.673138618,0.2687520981,1.802580237,5.015949337,
805,3.870793129,4.798445702,0.4558410645,2.055172205,5.239905058,
806,3.87553516,4.927811146,0.5815153122,2.3520751,5.49124212,
807,3.880277191,4.980155945,0.6672697067,2.579417229,5.648061202,
808,3.885019171,4.958168983,0.6891107559,2.745405436,5.709252517,
809,3.889761202,4.874084473,0.637430191,2.855615139,5.684853078,
810,3.894503233,4.730508804,0.3663034439,2.898932934,5.560189198,
811,3.899245264,4.441429138,0.06000137329,2.815960407,5.259232451,
812,3.903987296,4.045227051,-0.3030862808,2.652592659,4.846851659,
813,3.908729275,3.563304424,-0.6584730148,2.444956779,4.371331466,
814,3.913471306,3.095908165,-1.046941757,2.197939634,3.938486136,
815,3.918213337,2.501534939,-1.461503506,2.2778759,3.68542917,
816,3.922955368,1.798639774,-1.880944729,2.355015278,3.509865392,
817,3.9276974,1.003120542,-2.346378803,2.724596024,3.732983766,
818,3.932439379,0.3679479361,-2.805507183,2.999864578,4.123765721,
819,3.93718141,-0.03792381287,-3.143792152,3.155331373,4.454321877,
820,3.941923441,-0.3126542568,-3.447504044,3.19374156,4.709885558,
821,3.946665473,-0.5425372124,-3.64968729,3.122096062,4.833430227,
822,3.951407452,-0.7660624981,-3.525570393,2.889543295,4.622332614,
823,3.956149483,-0.9970723391,-3.127756596,2.597710609,4.186300871,
824,3.960891514,-1.03069222,-2.357861996,2.297486544,3.449678834,
825,3.965633546,-0.9682661295,-1.19644928,1.912600636,2.455009444,
826,3.970375577,-1.052473664,0.1342601776,1.489005327,1.828349932,
827,3.975117556,-1.066271305,1.730348587,1.271251798,2.397315553,
828,3.979859587,-1.393442512,3.417407036,1.114343643,3.855141325,
829,3.984601618,-1.91327405,4.899030685,1.510454774,5.471982536,
830,3.98934365,-2.544144869,6.39795208,1.736472964,7.100831098,
831,3.994085629,-3.442165136,7.904513359,1.768559813,8.801001993,
832,3.99882766,-4.559011459,9.148306847,1.50818634,10.33202447,
833,4.003569691,-6.092765808,10.0598526,1.063794255,11.80906803,
834,4.008311723,-7.306467533,10.89268398,0.009533166885,13.11621603,
835,4.013053702,-8.201089859,11.5940361,-0.7467477322,14.22101193,
836,4.017795733,-8.788299561,12.19967461,-0.9448775053,15.06516058,
837,4.022537764,-8.718266487,12.28655148,-1.59074223,15.14919069,
838,4.027279796,-8.235447884,11.93953609,-2.445824385,14.70908498,
839,4.032021775,-7.125525951,11.63071156,-2.40170908,13.84972122,
840,4.036763806,-6.274382591,10.492136,-2.467633963,12.47164833,
841,4.041505837,-5.320732594,9.357193947,-2.513633728,11.05376083,
842,4.046247868,-4.28805542,8.376772881,-2.40213418,9.712259871,
843,4.050989848,-3.045303822,7.754419327,-2.316044569,8.64690447,
844,4.055731879,-1.862522602,7.33958149,-2.009854317,7.834408801,
845,4.06047391,-0.998937726,6.632236481,-1.684976339,6.91545968,
846,4.065215941,-0.997551322,5.799835205,-1.406934381,6.050839727,
847,4.069957921,-1.608648777,5.15695858,-0.8093037605,5.462320501,
848,4.074699952,-2.1506989,4.814326286,0.2669217587,5.279629776,
849,4.079441983,-2.165939808,5.050805092,1.254874229,5.637076961,
850,4.084184014,-2.105648756,5.810037613,2.77258563,6.773294976,
851,4.088925993,-2.409575939,6.74148941,4.099863529,8.250007069,
852,4.093668025,-2.894211054,7.752860069,5.449995041,9.908871925,
853,4.098410056,-3.454181433,8.706295967,6.765676498,11.55445097,
854,4.103152087,-4.100997925,9.425834656,7.465475082,12.70424579,
855,4.107894066,-4.942457199,10.14775658,9.593808174,14.81370993,
856,4.112636098,-5.220917225,10.79262829,11.07172585,16.31937239,
857,4.117378129,-5.061118126,10.92251587,9.957237244,15.62251078,
858,4.122120108,-4.695999622,10.34021568,8.309059143,14.07170696,
859,4.126862139,-4.303856373,9.16985321,6.659635544,12.12271146,
860,4.131604171,-3.747037649,7.486063957,4.788823605,9.644390921,
861,4.13634615,-3.130336761,5.584089279,2.312812567,6.806626425,
862,4.141088181,-2.54713273,3.918904305,0.1685333252,4.676975473,
863,4.145830212,-1.962564468,2.61212635,-1.467689037,3.581755781,
864,4.150572243,-1.408101916,1.684264183,-2.657853365,3.447271581,
865,4.155314223,-1.061124921,0.9040575027,-3.345464706,3.62428478,
866,4.160056254,-0.9366539717,0.2980909348,-3.554010153,3.687433665,
867,4.164798285,-0.8229351044,-0.09797668457,-3.439833641,3.538259049,
868,4.169540264,-0.6229894161,-0.3826713562,-3.057795048,3.143988507,
869,4.174282296,-0.3523266315,-0.7500629425,-2.586841583,2.716335371,
870,4.179024327,-0.3166515827,-1.24339962,-2.18427968,2.533256513,
871,4.183766358,-0.5231782198,-1.896522045,-1.609849334,2.542071241,
872,4.188508337,-0.5530475378,-2.389212608,-1.121015429,2.696455833,
873,4.193250368,-0.5472790003,-3.004083157,-0.6332485676,3.118498623,
874,4.1979924,-0.5104916096,-3.688657761,-0.2078361511,3.729610385,
875,4.202734379,-0.2601183653,-4.318687916,0.2040400505,4.331323033,
876,4.20747641,-0.008808374405,-5.040318966,0.5794472694,5.073524613,
877,4.212218441,0.1764577627,-5.805851936,0.797359705,5.863005761,
878,4.216960421,0.4512281418,-6.45989418,0.8105704784,6.526167647,
879,4.221702452,0.7221268415,-7.067181587,0.7391495705,7.142329091,
880,4.226444483,0.9026403427,-7.713927746,0.6288375854,7.791975203,
881,4.231186462,1.001854181,-8.366661072,0.4964864254,8.441044252,
882,4.235928493,0.9545477629,-9.01585865,0.3683450222,9.073728379,
883,4.240670525,0.8605958819,-9.594544411,0.2296321392,9.635799844,
884,4.245412504,0.7504204512,-10.06690884,0.0272397995,10.09487624,
885,4.250154535,0.6999828815,-10.3756752,-0.1578979492,10.40045882,
886,4.254896566,0.6561009884,-10.56402683,-0.4149467945,10.59251208,
887,4.259638546,0.6639187932,-10.71574783,-0.5650572777,10.7511548,
888,4.264380577,0.6966124773,-10.81884289,-0.8460536003,10.87420972,
889,4.269122608,0.7469314337,-10.89475346,-1.096242189,10.97521327,
890,4.273864639,0.8531640172,-10.94823456,-1.220661998,11.0490608,
891,4.278606618,1.000890017,-10.98414803,-1.305670381,11.10666754,
892,4.28334865,1.187861919,-10.97868156,-1.255424023,11.11389015,
893,4.288090629,1.301830888,-10.93917179,-1.16043961,11.077313,
894,4.29283266,1.42194891,-10.89684677,-0.9437317252,11.02967986,
895,4.297574691,1.534152627,-10.89480495,-0.8130728006,11.0322929,
896,4.302316671,1.664963007,-10.92581558,-0.6917980313,11.07357812,
897,4.307058702,1.70452106,-10.93963623,-0.6778709292,11.09236413,
898,4.311800733,1.755821466,-10.89089203,-0.5462391376,11.04503578,
899,4.316542712,1.811760783,-10.87056732,-0.4689158201,11.03048472,
900,4.321284743,1.831590414,-10.76154232,-0.3594190478,10.92221125,
901,4.326026775,1.724107385,-10.7003088,-0.2679361105,10.84163016,
902,4.330768754,1.642011881,-10.65339565,-0.3286372423,10.78420347,
903,4.335510785,1.493867517,-10.66863728,-0.5228564143,10.7853994,
904,4.340252816,1.360401154,-10.7268486,-0.7413966656,10.83815673,
905,4.344994796,1.22411263,-10.78978729,-1.080610514,10.91263857,
906,4.349736827,1.177723765,-10.84310818,-1.44807601,11.00258844,
907,4.354478806,1.153788567,-10.91548157,-1.923722267,11.14359337,
908,4.359220837,1.178560615,-10.91596603,-2.280886173,11.2138201,
909,4.363962868,1.326175451,-10.92112732,-2.56776619,11.29704326,
910,4.368704848,1.412518263,-10.8974247,-2.729536295,11.32251921,
911,4.373446879,1.492821693,-10.88788891,-2.797281742,11.34016872,
912,4.37818891,1.531301975,-10.88052464,-2.751608372,11.32704951,
913,4.382930889,1.570986271,-10.93033028,-2.549111843,11.33305294,
914,4.387672921,1.595335126,-10.94400501,-2.164987087,11.26958335,
915,4.392414952,1.65235889,-11.02683735,-1.787268639,11.29228768,
916,4.397156931,1.720481277,-11.08547497,-1.532643318,11.32240286,
917,4.401898962,1.845031261,-11.14139462,-1.444045067,11.38508149,
918,4.406640941,1.939645529,-11.19455147,-1.372979879,11.44400634,
919,4.411382973,2.059108734,-11.2544384,-1.278849363,11.51250486,
920,4.416125004,2.066764832,-11.38555336,-1.099457264,11.62373212,
921,4.420866983,2.125184536,-11.48487854,-0.9640629292,11.71956747,
922,4.425609014,2.205608606,-11.59531212,-0.8896285892,11.83669766,
923,4.430351046,2.23381567,-11.67603111,-0.8953002691,11.92145954,
924,4.435093025,2.217188358,-11.71734905,-0.7919569016,11.95154336,
925,4.439835056,2.122568607,-11.73833466,-0.5888296366,11.9432206,
926,4.444577035,2.043779135,-11.69109917,-0.3476169109,11.87348603,
927,4.449319066,2.050787926,-11.66167068,-0.1756666899,11.84192354,
928,4.454061098,2.268810272,-11.4752655,-0.1135537624,11.69795336,
929,4.458803077,2.879082441,-10.85681629,0.08020710945,11.23236435,
930,4.463545108,3.402785778,-9.706303596,0.5061540604,10.29793535,
931,4.468287087,3.370562792,-8.481030464,1.137751579,9.196904366,
932,4.473029118,3.045081615,-7.527468681,1.710484266,8.298256637,
933,4.47777115,2.540449381,-6.686938763,2.284673452,7.509245359,
934,4.482513129,1.927289128,-5.910601616,2.71867156,6.785339336,
935,4.48725516,1.398136616,-5.089429855,2.848401308,5.99753885,
936,4.491997139,0.8615523577,-4.083369732,3.670355082,5.557669229,
937,4.496739171,0.118264623,-2.996632576,5.067125797,5.888086036,
938,4.501481202,-0.897158742,-1.888836384,7.121097565,7.421767122,
939,4.506223181,-2.397879362,-0.7445545197,9.756156921,10.07406496,
940,4.510965212,-4.55297327,0.6217765808,13.74190712,14.48986484,
941,4.515707191,-7.249439716,2.021701813,19.95299721,21.32519055,
942,4.520449223,-9.977218628,3.07020092,28.34703445,30.20803515,
943,4.525191254,-11.84030819,5.374835014,36.96406937,39.18448894,
944,4.529933233,-3.847890139,20.52661133,42.2763443,47.15333836,
945,4.534675264,11.4423275,53.718853,45.58585739,71.37725422,
946,4.539417243,15.67758465,68.50109863,45.1352272,83.51871592,
947,4.544159275,10.92475986,69.4379425,41.21202087,81.48256809,
948,4.548901306,-2.119077682,69.39069366,38.57030487,79.41805384,
949,4.553643285,-11.35382938,66.94786072,30.44893646,74.41816464,
950,4.558385316,-16.44143867,60.38968658,22.75327682,66.59539592,
951,4.563127296,-19.64319611,52.83598328,16.33727455,58.68903494,
952,4.567869327,-19.55230331,44.44775391,11.64165878,49.93419281,
953,4.572611306,-17.58791733,35.67229843,8.395971298,40.64898579,
954,4.577353337,-14.02728271,27.98265076,5.778922081,31.83063531,
955,4.582095316,-10.30642223,21.74800682,3.230853081,24.28243298,
956,4.586837348,-6.927714348,17.20088196,2.871983528,18.76464376,
957,4.591579379,-4.208408833,14.82248592,6.091750622,16.56883277,
958,4.596321358,-2.017854214,13.47409534,21.20033264,25.2007358,
959,4.601063389,0.3701500297,12.11570644,28.55696106,31.02301369,
960,4.605805368,1.21916604,8.67121315,16.11168671,18.33746852,
961,4.6105474,1.011968851,5.51421833,5.684102058,7.983714734,
962,4.615289379,-0.6739770174,3.00333786,-4.448487282,5.409558431,
963,4.62003141,-2.798437357,1.464701653,-18.35679817,18.62655743,
964,4.624773389,-4.819280624,1.149847031,-34.49177551,34.84580594,
965,4.629515421,-5.850320816,1.602684975,-32.84112167,33.39661847,
966,4.634257452,-6.612471581,2.216616631,-23.34871674,24.36802706,
967,4.638999431,-50.56845093,-10.17575359,-2.081748247,51.6241016,
968,4.643741462,-14.06497574,-1.465428352,-2.994554758,14.454701,
969,4.648483441,3.835000992,4.509696007,-3.315942764,6.785283126,
970,4.653225473,7.803287506,6.122721672,-3.151627541,10.40729421,
971,4.657967452,7.537914753,5.560272217,-3.06815958,9.856489698,
972,4.662709483,8.80200386,1.251438141,-14.34405422,16.87581882,
973,4.667451462,5.109622002,-0.1870527267,-4.993916512,7.147197202,
974,4.672193493,2.929985523,-2.265202999,-2.943639994,4.730853645,
975,4.676935473,4.947311878,-4.506195068,-5.889149666,8.914245487,
976,4.681677504,-1.220494509,-15.36352539,12.86647606,20.07669608,
977,4.686419483,4.255303383,-14.34225082,9.409783363,17.67347698,
978,4.691161514,14.55918312,-14.84594631,48.51331329,52.78175349,
979,4.695903493,-1.01755619,-18.83832169,-8.743301392,20.79334278,
980,4.700645525,-6.938113213,-20.2592659,-20.00163269,29.30256951,
981,4.705387556,-4.161761284,-21.41493225,-3.802406788,22.14447736,
982,4.710129535,-2.714225054,-19.88402939,-5.677514076,20.85607366,
983,4.714871566,-3.326466084,-18.00651169,-8.831705093,20.32975294,
984,4.719613546,-3.901008606,-16.33349609,-10.69403076,19.90887382,
985,4.724355577,-3.656545162,-15.20476913,-11.58510017,19.46201102,
986,4.729097556,-2.346545935,-14.00228691,-12.98101234,19.23738543,
987,4.733839587,0.1649378538,-13.10996056,-14.20768642,19.33278624,
988,4.738581566,1.514872313,-13.23708439,-14.18153954,19.45845073,
989,4.743323598,1.906375051,-13.82557201,-13.04756165,19.1054854,
990,4.748065577,1.669667244,-14.60065651,-11.4903183,18.65460731,
991,4.752807556,2.197843552,-14.26703835,-8.673081398,16.84046437,
992,4.757549587,2.953814507,-12.83897209,-4.997717857,14.09047225,
993,4.762291618,4.296774864,-11.08573246,-2.366317034,12.12250777,
994,4.767033598,4.712547779,-10.03841591,-1.530206442,11.19461622,
995,4.771775577,4.671369076,-9.43310833,-0.8776193857,10.56292751,
996,4.776517608,4.471633434,-9.04166317,-0.9207628965,10.12891814,
997,4.781259587,4.436228752,-8.573759079,-1.136323214,9.72011835,
998,4.786001618,4.44816494,-8.086432457,-0.08647227287,9.229519959,
999,4.790743598,4.178454399,-7.971547127,0.5506745577,9.017110803,
1000,4.795485629,3.836664677,-8.158804893,-0.8990190029,9.06059205,
1001,4.800227608,3.852077007,-8.611459732,-2.83425498,9.850316608,
1002,4.804969639,4.009200096,-9.271469116,-3.715933323,10.76299147,
1003,4.809711618,4.093800068,-9.932741165,-3.746208906,11.37772505,
1004,4.81445365,4.466368675,-10.06668186,-3.298547268,11.49638843,
1005,4.819195629,4.606805325,-9.819643974,-2.813211203,11.20545494,
1006,4.82393766,4.51194334,-9.368860245,-2.584434509,10.71505841,
1007,4.828679639,4.368000984,-8.788485527,-2.408623219,10.10536374,
1008,4.833421671,4.19611311,-8.5112257,-2.049038649,9.708083618,
1009,4.83816365,3.837509632,-8.409763336,-1.642477751,9.388734351,
1010,4.842905681,3.189871788,-8.041354179,-1.139708757,8.725685939,
1011,4.84764766,2.30877161,-7.592932701,-0.6186870337,7.96026551,
1012,4.852389691,1.130874515,-7.44028759,-0.4158527851,7.537220318,
1013,4.857131671,0.3332192898,-7.363042831,-0.7339687347,7.407033477,
1014,4.861873702,0.07526671886,-7.391955376,-1.258451819,7.498691242,
1015,4.866615681,0.3166570663,-7.46923542,-1.714758635,7.670081267,
1016,4.87135766,0.258382082,-7.752528191,-2.026643753,8.017215199,
1017,4.876099691,0.3071545362,-8.162686348,-2.306337833,8.487814002,
1018,4.880841671,0.3524471521,-8.620640755,-2.592018604,9.00878607,
1019,4.885583702,0.4870244265,-8.863362312,-2.742139339,9.290624975,
1020,4.890325681,0.1887705326,-9.137545586,-2.823078632,9.565570898,
1021,4.895067712,-0.01391625404,-9.127760887,-2.709194899,9.52134179,
1022,4.899809691,-0.1691007614,-9.083402634,-2.106745005,9.326048091,
1023,4.904551723,-0.03505241871,-9.045617104,-1.266954184,9.133979985,
1024,4.909293702,-0.03044331074,-9.048373222,-0.4816528559,9.061234697,
1025,4.914035733,0.06272625923,-9.089747429,-0.001796007156,9.089964034,
1026,4.918777712,0.09876465797,-9.160567284,0.2657091618,9.164952197,
1027,4.923519691,0.4297035933,-9.163166046,0.5475816727,9.189564889,
1028,4.928261723,0.6704480648,-9.160066605,0.4788463116,9.197043797,
1029,4.933003702,0.8638613224,-9.0916996,0.2131531239,9.135135043,
1030,4.937745733,0.9039450884,-9.039588928,-0.2209899426,9.087360523,
1031,4.942487712,1.038898945,-8.946393967,-0.472405076,9.018893645,
1032,4.947229743,1.399798989,-8.800136566,-0.5038123131,8.925002389,
1033,4.951971723,1.811327934,-8.629407883,-0.4816563129,8.830604854,
1034,4.956713754,2.311105728,-8.46743679,-0.6061522961,8.798074567,
1035,4.961455733,2.788895607,-8.311445236,-0.6779516935,8.793047203,
1036,4.966197764,2.952412605,-8.199355125,-0.9883569479,8.770576613,
1037,4.970939743,2.662034512,-8.181130409,-1.522374153,8.736987214,
1038,4.975681723,2.332616329,-8.168106079,-2.202796936,8.775612241,
1039,4.980423754,1.967227101,-8.16983223,-2.756123781,8.84377518,
1040,4.985165733,1.887447119,-8.114352226,-3.700933456,9.116034068,
1041,4.989907764,1.934729099,-8.102027893,-4.396596909,9.418922287,
1042,4.994649743,2.238779068,-8.147294998,-4.129276276,9.404332516,
1043,4.999391723,2.882320166,-7.939874172,-2.539405107,8.820314604,
1044,5.004133754,3.295050621,-7.753671646,-0.1059744358,8.425438456,
1045,5.008875733,3.725309849,-7.608552456,2.172677279,8.74577215,
1046,5.013617764,4.442558289,-7.46170187,3.655965567,9.42228227,
1047,5.018359743,5.22057724,-6.990143299,4.330879211,9.740279503,
1048,5.023101775,6.081625938,-6.669617653,4.637170792,10.14757738,
1049,5.027843754,6.623875141,-6.910490513,4.481799126,10.56963218,
1050,5.032585733,7.453330994,-8.020674706,2.658270121,11.26719866,
1051,5.037327764,8.577528,-9.360902786,-0.09457778931,12.69682766,
1052,5.042069743,8.371090889,-10.15095806,-1.005114794,13.19573295,
1053,5.046811775,8.035329819,-10.31928062,-1.594594121,13.17561415,
1054,5.051553754,7.293468475,-9.440295219,-3.477019548,12.42592134,
1055,5.056295733,6.293696404,-7.203927994,-4.835763931,10.71875953,1.0
1056,5.061037764,7.215660572,-3.332701206,-0.856595397,7.994148516,1.0
1057,5.065779743,7.299842358,-0.2174701691,2.139904022,7.610136723,1.0
1058,5.070521775,4.568364143,0.9651918411,-4.31551981,6.358085991,1.0
1059,5.075263754,5.046116352,6.306624413,5.358728409,9.692923804,1.0
1060,5.080005785,9.161007881,17.82780457,24.45931053,31.62297508,1.0
1061,5.084747764,13.84412479,35.38306427,17.79388618,41.9552549,1.0
1062,5.089489743,22.40427589,64.3613739,16.30319595,70.07233568,1.0
1063,5.094231775,19.82964897,69.17684174,10.59171772,72.73812546,1.0
1064,5.098973754,-2.162041426,69.49539948,11.65107727,70.49845795,1.0
1065,5.103715733,-42.18801117,69.53350067,18.95451355,83.51053578,1.0
1066,5.108457764,-71.82323456,68.39965057,24.10342216,102.0689188,1.0
1067,5.113199743,-75.04574585,55.59014893,21.74098396,95.88951461,1.0
1068,5.117941775,-58.14456177,43.14490891,13.33323479,73.62097784,1.0
1069,5.122683754,-34.74228287,36.56506348,8.22810936,51.1051061,1.0
1070,5.127425785,-17.83473015,32.9203186,5.362763405,37.82306449,1.0
1071,5.132167764,-2.60834527,30.03840256,6.068359375,30.75604134,1.0
1072,5.136909743,7.84335041,26.43403435,8.526427269,28.86132844,1.0
1073,5.141651775,11.19201469,24.05978775,4.74760294,26.95689732,1.0
1074,5.146393754,13.14716434,20.51815033,4.732922554,24.82424176,1.0
1075,5.151135733,12.40236855,16.64313889,6.973563194,21.89619604,1.0
1076,5.155877764,7.741789818,14.90959644,8.229844093,18.70726355,1.0
1077,5.160619743,0.761677146,17.22034836,13.80209923,22.08208534,1.0
1078,5.165361775,-4.233523369,20.88243103,17.49545288,27.56972102,1.0
1079,5.170103754,-8.706374168,20.39408112,1.349746227,22.21578967,1.0
1080,5.174845733,-10.56332111,16.29703903,-6.442876816,20.46186443,1.0
1081,5.179587764,-10.19429016,12.12901306,-5.466008186,16.76048195,1.0
1082,5.184329743,-8.784457207,8.623401642,-6.504039764,13.92236609,1.0
1083,5.189071723,-6.662035942,6.195960045,-7.884972572,12.03932873,1.0
1084,5.193813754,-3.986546755,4.721357346,-8.037486076,10.13829141,1.0
1085,5.198555733,-1.628077984,3.765160561,-7.099673271,8.199538556,1.0
1086,5.203297764,-0.08295702934,2.780143738,-5.773952484,6.408947524,1.0
1087,5.208039743,0.2923386097,1.443321228,-4.354784489,4.597041002,1.0
1088,5.212781723,0.6131360531,-0.04443836212,-3.093512058,3.154001814,1.0
1089,5.217523754,0.9836678505,-1.542313576,-1.791584373,2.56048983,1.0
1090,5.222265733,1.215400934,-3.113079071,-0.3103640079,3.356305491,1.0
1091,5.227007712,1.737144232,-4.541764259,0.8232572079,4.93183993,1.0
1092,5.231749743,2.250302792,-6.125189781,1.761557817,6.759060471,1.0
1093,5.236491723,2.707186699,-7.911108971,2.198716164,8.645742174,1.0
1094,5.241233754,3.014615774,-9.822844505,1.974727273,10.46306505,1.0
1095,5.245975733,3.173588991,-11.69271851,1.346437335,12.19033333,1.0
1096,5.250717712,3.769262552,-13.41275692,0.6947609186,13.94962656,1.0
1097,5.255459743,4.417468548,-14.89186478,-0.1238697767,15.53373775,1.0
1098,5.260201723,4.891905785,-15.92436409,-1.341811419,16.71276673,1.0
1099,5.264943702,5.011531353,-16.41255569,-2.916342258,17.40667927,1.0
1100,5.269685733,4.929592133,-16.75411034,-4.345066547,17.99668567,1.0
1101,5.274427712,4.665156364,-17.21484566,-4.947812557,18.50933397,1.0
1102,5.279169743,4.449896336,-17.7544136,-4.770411015,18.91500994,1.0
1103,5.283911723,4.455318928,-18.41636658,-3.953112602,19.35560704,1.0
1104,5.288653702,4.850408554,-19.17000198,-2.794312477,19.97056888,1.0
1105,5.293395733,5.473954201,-19.79802513,-1.476322174,20.59382191,1.0
1106,5.298137712,5.851413727,-20.25800514,-0.3684920669,21.08937176,1.0
1107,5.302879743,6.147221088,-20.28519821,0.7435971498,21.20920862,1.0
1108,5.307621723,5.82644558,-20.0076828,1.758118868,20.91281476,1.0
1109,5.312363702,4.709781647,-19.50361633,2.491182089,20.21828582,1.0
1110,5.317105681,3.172023773,-18.84181976,2.897360802,19.32538761,1.0
1111,5.321847712,1.734137774,-17.99031448,3.378644943,18.38678576,1.0
1112,5.326589691,1.114689827,-16.84213257,3.951993227,17.33546115,1.0
1113,5.331331671,1.241773129,-15.21775055,4.19567585,15.83431805,1.0
1114,5.336073702,1.326568365,-13.54248428,3.590923071,14.07314438,1.0
1115,5.340815681,1.456349611,-12.01395607,2.553860426,12.36843958,1.0
1116,5.345557712,1.833624959,-10.6787529,1.418966532,10.92755279,1.0
1117,5.350299691,2.374251842,-9.301170349,0.5446664095,9.614858458,1.0
1118,5.355041671,2.874526978,-8.19591713,-0.3971427381,8.69446291,1.0
1119,5.359783702,3.278971195,-7.505376816,-1.420618296,8.312670425,1.0
1120,5.364525681,3.629911423,-7.058744431,-2.27846241,8.257936838,1.0
1121,5.369267712,3.941073895,-6.778698921,-2.756190538,8.311402336,1.0
1122,5.374009691,4.400550365,-6.513978958,-2.954850435,8.398089454,1.0
1123,5.378751671,4.753720284,-6.288113594,-3.030258417,8.445158091,1.0
1124,5.383493702,5.042358398,-6.191692352,-3.08520031,8.560426003,1.0
1125,5.388235681,4.975209236,-6.231695175,-3.088379622,8.551305186,1.0
1126,5.39297766,4.55947113,-6.467927933,-3.2286098,8.546741483,1.0
1127,5.397719691,3.97191143,-6.814279556,-3.300040483,8.549897863,1.0
1128,5.402461671,3.326554298,-7.25416851,-3.326182842,8.645947986,1.0
1129,5.40720365,2.777878523,-7.596471786,-3.19150877,8.695327534,1.0
1130,5.411945681,2.614767551,-7.877211094,-2.856870651,8.777765882,1.0
1131,5.41668766,2.777208567,-8.108241081,-2.5441854,8.940321035,1.0
1132,5.421429691,2.718788624,-8.390247345,-2.175851345,9.084183572,1.0
1133,5.426171671,2.646482468,-8.675769806,-1.50602603,9.194616119,1.0
1134,5.43091365,2.8059237,-8.948332787,-0.6859804392,9.403001469,1.0
1135,5.435655681,3.01248765,-9.234430313,0.2168885469,9.715802884,1.0
1136,5.44039766,3.321446896,-9.464765549,1.056295156,10.08610707,1.0
1137,5.445139639,3.771739006,-9.641705513,1.472580194,10.45738939,1.0
1138,5.449881671,4.199390411,-9.714840889,1.342351913,10.66840766,1.0
1139,5.45462365,4.524093628,-9.712759018,0.8861175776,10.75129366,1.0
1140,5.459365629,4.573908806,-9.597327232,0.4961459637,10.64309601,1.0
1141,5.46410766,4.393979073,-9.364190102,0.3111100197,10.34852153,1.0
1142,5.468849639,4.244278431,-8.970808983,0.2014806271,9.926223232,1.0
1143,5.473591671,4.236483574,-8.508465767,0.08783626556,9.505235294,1.0
1144,5.47833365,4.130686283,-8.242869377,0.01294577122,9.219958369,1.0
1145,5.483075629,3.835238695,-8.296063423,0.1991765499,9.14184858,1.0
1146,5.48781766,3.262706518,-8.665532112,-0.6085861921,9.279389946,1.0
1147,5.492559639,2.715439558,-9.013703346,-2.592191219,9.764216063,1.0
1148,5.497301618,2.479978085,-9.388219833,-3.944238186,10.48074319,1.0
1149,5.50204365,2.370108843,-9.695669174,-4.236487389,10.84302735,1.0
1150,5.506785629,2.128293991,-9.876355171,-4.049273968,10.88433032,1.0
1151,5.51152766,1.89177525,-9.990270615,-3.86183691,10.87649322,1.0
1152,5.516269639,1.790630579,-9.984861374,-3.732466936,10.80902974,1.0
1153,5.521011618,1.789396763,-9.89375782,-3.698502541,10.71295037,1.0
1154,5.52575365,1.79292655,-9.638113976,-3.443647861,10.39069474,1.0
1155,5.530495629,1.976780891,-9.409414291,-2.856933832,10.03029466,1.0
1156,5.53523766,2.08056736,-9.169563293,-2.20045042,9.656688541,1.0
1157,5.539979639,2.145151138,-8.899614334,-1.777349353,9.325437224,1.0
1158,5.544721618,2.124911785,-8.456280708,-1.551465988,8.856126706,1.0
1159,5.54946365,1.87092185,-7.954739571,-1.365244389,8.285054161,1.0
1160,5.554205629,1.411313415,-7.476529121,-1.223975897,7.706387627,1.0
1161,5.558947608,1.070865154,-7.091062069,-1.001427174,7.241047564,1.0
1162,5.563689639,0.7964943647,-6.874688625,-0.7868736982,6.965265048,1.0
1163,5.568431618,0.5828465223,-6.836703777,-0.9111788273,6.921739338,1.0
1164,5.57317365,0.4411945343,-6.986374378,-1.370234966,7.133135596,1.0
1165,5.577915629,0.3976373672,-7.199023724,-1.726593137,7.41385068,1.0
1166,5.582657608,0.4980115891,-7.323876381,-1.470519662,7.486628671,1.0
1167,5.587399639,0.7167702913,-7.246221542,-0.8168343306,7.327257646,1.0
1168,5.592141618,0.9231622219,-6.980651855,-0.08275938034,7.041915786,1.0
1169,5.596883598,1.196898937,-6.65655899,0.7855745554,6.808779042,1.0
1170,5.601625629,1.471314311,-6.290933132,1.744146585,6.691984219,1.0
1171,5.606367608,1.780429363,-5.898324966,2.866406679,6.795325848,1.0
1172,5.611109639,2.005104303,-5.648693085,4.16849184,7.300993155,1.0
1173,5.615851618,2.095504761,-5.561012268,5.304886341,7.966041472,1.0
1174,5.620593598,1.975003242,-5.68269825,5.646726131,8.25101286,1.0
1175,5.625335629,1.846483946,-5.831370831,5.260390759,8.067595655,1.0
1176,5.630077608,1.670791149,-5.786509514,4.376027584,7.444786957,1.0
1177,5.634819639,1.581274629,-5.399522781,3.211016893,6.478109694,1.0
1178,5.639561618,1.167657137,-4.837958813,2.310413837,5.487010184,1.0
1179,5.64430365,0.5047336817,-3.977809429,1.704926252,4.357120319,1.0
1180,5.649045629,-0.3719387054,-2.76245451,1.20034492,3.034851108,1.0
1181,5.653787608,-2.052191257,-0.8751087189,0.9952790141,2.442925407,1.0
1182,5.658529639,-3.452684402,1.855012894,0.6640142202,3.975300907,1.0
1183,5.663271618,-3.81116271,5.725982666,0.1705064774,6.880473178,1.0
1184,5.66801365,-3.086773872,11.54825592,-0.9927000999,11.9948256,1.0
1185,5.672755629,-0.2009704113,21.38134003,-2.940897226,21.58358096,1.0
1186,5.67749766,7.350395203,40.55915451,-3.809225082,41.39545289,1.0
1187,5.682239639,15.86659908,64.56152344,-5.375065804,66.69955478,1.0
1188,5.686981618,17.86740303,68.85491943,-3.075723886,71.2018546,1.0
1189,5.69172365,7.694475174,69.09465027,3.484683752,69.60904154,1.0
1190,5.696465629,-14.67732239,69.08939362,12.89797974,71.79920601,1.0
1191,5.70120766,-33.52509308,68.16294861,25.47443008,80.11907399,1.0
1192,5.705949639,-41.80478287,54.93043137,34.31313705,77.08685708,1.0
1193,5.710691618,-37.16264725,40.85637283,34.67086792,65.21023412,1.0
1194,5.71543365,-26.25881386,31.82854843,29.02618027,50.44899346,1.0
1195,5.720175629,-14.71956444,27.4162178,22.41374207,38.34958161,1.0
1196,5.72491766,-5.731884003,26.06757545,17.14091492,31.72040272,1.0
1197,5.729659639,0.01430416107,26.45067978,12.86510754,29.41342648,1.0
1198,5.734401671,2.624437809,27.59148979,8.962454796,29.12908476,1.0
1199,5.73914365,2.80799675,28.63747787,4.070169449,29.06125022,1.0
1200,5.743885681,1.265700102,28.73450089,-3.293587685,28.95032397,1.0
1201,5.74862766,-0.8390104771,27.53556824,-16.58124352,32.15352381,1.0
1202,5.753369639,-4.008907318,24.83152199,-33.27913284,41.71542287,1.0
1203,5.758111671,-5.348849773,22.3051796,-17.19072914,28.66447975,1.0
1204,5.76285365,-4.803980827,20.64535141,-5.324991226,21.85553244,1.0
1205,5.767595681,-3.133708477,19.34207153,5.729849815,20.41487298,1.0
1206,5.77233766,-2.232170105,18.4683075,15.72509384,24.35856197,1.0
1207,5.777079691,-3.590116739,15.45551395,17.17677116,23.38382598,1.0
1208,5.781821671,-5.760764122,10.42168522,13.42441559,17.94471677,1.0
1209,5.786563702,-6.434532166,5.116938591,8.088565826,11.53304651,1.0
1210,5.791305681,-5.894727707,0.3707370758,2.591012239,6.449698066,1.0
1211,5.796047712,-4.547296524,-3.189164639,-2.918002605,6.274027094,1.0
1212,5.800789691,-3.059473991,-5.305413723,-7.024256229,9.319225904,1.0
1213,5.805531671,-1.457338572,-6.657516479,-9.333579063,11.55690527,1.0
1214,5.810273702,0.3021376133,-7.391908646,-9.611087799,12.1286689,1.0
1215,5.815015681,2.033537149,-7.973384857,-9.025053024,12.21317819,1.0
1216,5.819757712,3.245997429,-8.806854248,-7.692414284,12.1355024,1.0
1217,5.824499691,4.138689518,-10.0052557,-5.669890404,12.22217451,1.0
1218,5.829241723,4.891127586,-11.25317287,-3.165753365,12.67197787,1.0
1219,5.833983702,5.743169785,-12.29719639,-1.252719641,13.62990626,1.0
1220,5.838725733,5.976703167,-13.49658298,-0.7386946678,14.77918817,1.0
1221,5.843467712,5.822815418,-14.82783604,0.04971049726,15.93023453,1.0
1222,5.848209743,4.95689106,-16.20075226,0.3278955817,16.94528425,1.0
1223,5.852951723,4.275278091,-17.41481781,-0.3147607744,17.93468585,1.0
1224,5.857693754,3.645427942,-18.47997665,-2.118469238,18.95485674,1.0
1225,5.862435733,2.770216227,-19.0712204,-4.415250778,19.77068499,1.0
1226,5.867177764,2.317206383,-19.35853767,-6.554973602,20.56915422,1.0
1227,5.871919743,2.150022507,-19.22215271,-8.157247543,20.99177075,1.0
1228,5.876661775,1.873600245,-19.15945435,-9.245073318,21.35571234,1.0
1229,5.881403754,1.267168999,-19.00989914,-9.674608231,21.36773331,1.0
1230,5.886145785,1.524942398,-18.67248344,-9.445531845,20.98106668,1.0
1231,5.890887764,2.529417515,-18.16061401,-8.381875038,20.16089491,1.0
1232,5.895629796,3.640505791,-17.2370491,-6.340399265,18.72350947,1.0
1233,5.900371775,4.462078094,-16.29266739,-2.522021294,17.07986367,1.0
1234,5.905113806,4.928499222,-15.70504856,2.022257805,16.58397363,1.0
1235,5.909855785,5.094994545,-15.01055527,5.457314491,16.76478513,1.0
1236,5.914597816,5.398383617,-14.1544857,7.441709518,16.87812347,1.0
1237,5.919339796,5.735095978,-13.18621254,7.831149578,16.37358943,1.0
1238,5.924081827,6.048250198,-12.19898319,6.126025677,14.93066348,1.0
1239,5.928823806,6.066426277,-11.19667149,3.446886063,13.19272541,1.0
1240,5.933565837,5.884795666,-10.321805,1.330344439,11.95576408,1.0
1241,5.938307816,5.677735329,-9.554323196,-0.1454677582,11.11498678,1.0
1242,5.943049848,4.966353416,-8.98944664,-1.146816611,10.33392498,1.0
1243,5.947791827,4.001811028,-8.56464386,-1.800059199,9.623296164,1.0
1244,5.952533858,2.987290382,-8.238978386,-2.178471804,9.030526456,1.0
1245,5.957275837,2.202684164,-7.980931759,-2.50372839,8.649609535,1.0
1246,5.962017868,1.688779354,-7.687098503,-2.878285408,8.380213959,1.0
1247,5.966759848,1.477535605,-7.301813126,-3.045380592,8.048225229,1.0
1248,5.971501879,1.58038044,-6.821750164,-3.147928715,7.677456143,1.0
1249,5.97624391,2.035266638,-6.528040886,-3.853061914,7.848803362,1.0
1250,5.980985889,2.631406307,-6.259292603,-4.348531246,8.063049487,1.0
1251,5.985727921,3.215343714,-6.050678253,-4.632499218,8.270984919,1.0
1252,5.9904699,3.688285828,-5.820430279,-4.523167133,8.242566463,1.0
1253,5.995211931,4.223759174,-5.527695656,-4.304954529,8.180965366,1.0
1254,5.99995391,4.794306755,-5.239232063,-3.881678581,8.093352734,1.0
1255,6.004695941,5.389288902,-4.954753399,-3.434350729,8.086332979,1.0
1256,6.009437921,5.921399593,-4.681129932,-3.141919136,8.176038555,1.0
1257,6.014179952,6.365184784,-4.456376553,-3.054430008,8.348916815,1.0
1258,6.018921983,6.440898895,-4.414315701,-3.186347961,8.433514986,1.0
1259,6.023663962,6.084997654,-4.878011703,-3.334708452,8.481891009,1.0
1260,6.028405993,5.165582657,-5.345591068,-3.754190445,8.327816878,1.0
1261,6.033147973,4.177246571,-5.825237274,-3.875616789,8.148814865,1.0
1262,6.037890004,3.65584445,-6.269768715,-3.768421173,8.177786774,1.0
1263,6.042631983,3.530527115,-6.681955814,-3.326322317,8.25697132,1.0
1264,6.047374014,3.628337145,-7.179191113,-2.710634232,8.488412891,1.0
1265,6.052116046,3.781102657,-7.754415989,-2.051958084,8.867820285,1.0
1266,6.056858025,3.693287134,-8.580342293,-1.267282248,9.42701692,1.0
1267,6.061600056,3.873877764,-9.39889431,-0.4169204831,10.1744762,1.0
1268,6.066342035,4.158254147,-9.980587006,-0.005990743637,10.81217973,1.0
1269,6.071084066,4.42287159,-10.45952225,-0.1475858688,11.35716427,1.0
1270,6.075826098,4.556077003,-10.8429184,-0.6706795692,11.78034499,1.0
1271,6.080568077,4.326242447,-11.24581528,-1.27288568,12.1163102,1.0
1272,6.085310108,4.011406422,-11.50579071,-1.826405764,12.32113466,1.0
1273,6.090052087,3.777352333,-11.50594521,-2.248833656,12.31715952,1.0
1274,6.094794118,3.504905939,-11.26109982,-2.419733286,12.03959484,1.0
1275,6.09953615,3.184643269,-10.81951904,-2.604557037,11.57530399,1.0
1276,6.104278129,2.763652325,-10.29635334,-2.834841013,11.03127326,1.0
1277,6.10902016,2.291380882,-9.737318993,-3.082838535,10.46755468,1.0
1278,6.113762139,1.92969954,-9.188005447,-3.213250637,9.92311262,1.0
1279,6.118504171,1.668525815,-8.665082932,-3.267900229,9.409931589,1.0
1280,6.123246202,1.538834214,-8.232950211,-3.285738468,8.996974891,1.0
1281,6.127988181,1.351932406,-7.874515533,-3.353404045,8.664931322,1.0
1282,6.132730212,1.074785233,-7.596634865,-3.487964153,8.427924923,1.0
1283,6.137472243,0.6553094387,-7.370302677,-3.558098793,8.210411624,1.0
1284,6.142214223,0.06250405312,-7.12609005,-3.609543324,7.988358352,1.0
1285,6.146956254,-0.5814321041,-6.835337639,-3.407824278,7.659841398,1.0
1286,6.151698285,-0.9318361282,-6.753935337,-2.971966267,7.437509301,1.0
1287,6.156440264,-1.20369029,-6.867226601,-2.356498241,7.359399124,1.0
1288,6.161182296,-1.525866985,-7.033940792,-1.606251717,7.37459407,1.0
1289,6.165924275,-1.869570971,-7.201516628,-0.8833335638,7.49249061,1.0
1290,6.170666306,-2.105952263,-7.367612362,-0.2093453407,7.66554449,1.0
1291,6.175408337,-2.393429041,-7.616038799,0.8079177141,8.024043906,1.0
1292,6.180150316,-2.667803764,-7.899102688,2.931432247,8.837776599,1.0
1293,6.184892348,-2.52857542,-8.525297165,2.875619888,9.345778467,1.0
1294,6.189634379,-1.82703352,-8.932279587,2.159642935,9.369510537,1.0
1295,6.194376358,-0.6652522087,-9.402271271,1.731446981,9.58348445,1.0
1296,6.199118389,0.4745266438,-9.8011446,1.641247749,9.948934877,1.0
1297,6.203860421,1.250733852,-10.31084633,1.489583969,10.49269973,1.0
1298,6.2086024,1.934222341,-10.70169353,1.517669439,10.98047272,1.0
1299,6.213344431,2.854483128,-11.32966709,1.842659593,11.82813699,1.0
1300,6.218086462,3.833415508,-11.93321609,2.306776047,12.74432958,1.0
1301,6.222828441,5.006513596,-12.01661205,3.336135387,13.43852458,1.0
1302,6.227570473,5.34619236,-12.16131306,5.142269135,14.24507774,1.0
1303,6.232312504,4.566653252,-12.54691887,6.755779266,14.96395832,1.0
1304,6.237054535,3.880015373,-12.89123917,7.459388733,15.39094041,1.0
1305,6.241796514,4.08223772,-12.81373787,7.266885281,15.28607748,1.0
1306,6.246538546,4.740849972,-11.82609558,6.384158611,14.25095352,1.0
1307,6.251280577,6.164932251,-9.203542709,5.181987286,12.22965986,1.0
1308,6.256022556,7.140708923,-6.518013954,4.228415012,10.55242737,1.0
1309,6.260764587,7.712357521,-3.579690456,3.608159065,9.236528251,1.0
1310,6.265506618,8.6076231,-0.01467514038,3.355508327,9.238551127,1.0
1311,6.270248598,10.34066296,5.124829292,4.050488949,12.23109343,1.0
1312,6.274990629,14.13670731,13.46632385,4.673152924,20.07552564,1.0
1313,6.27973266,21.47244072,27.9565773,4.907128811,35.59095163,1.0
1314,6.284474691,30.69002724,48.78105927,3.431542873,57.73426194,1.0
1315,6.289216671,31.58882141,66.54242706,0.3469099998,73.66049541,1.0
1316,6.293958702,13.43326473,69.50225067,-0.6858363152,70.79184855,1.0
1317,6.298700733,-21.40797424,66.24090576,2.938790798,69.67636219,1.0
1318,6.303442764,-53.51674652,60.52918243,7.648799896,81.15619646,1.0
1319,6.308184743,-73.02241516,56.5956192,12.73466301,93.26043572,1.0
1320,6.312926775,-74.29275513,51.58159637,16.35395813,91.91042648,1.0
1321,6.317668806,-51.51726913,43.62150574,13.53976059,68.84903702,1.0
1322,6.322410837,-29.60197639,36.09635925,7.9087677,47.3473628,1.0
1323,6.327152816,-16.09937286,30.40829468,-1.644840002,34.44647573,1.0
1324,6.331894848,-6.413316727,25.71097946,-8.631162643,27.86901622,1.0
1325,6.336636879,-0.05283808708,22.96886253,-9.973054886,25.04063221,1.0
1326,6.34137891,3.575580359,21.90142059,-5.99600029,22.98714898,1.0
1327,6.346120889,7.101952553,22.65759087,-0.6819643974,23.7543518,1.0
1328,6.350862921,12.23090839,24.52556419,5.515911102,27.95574529,1.0
1329,6.355604952,15.74948406,25.52981567,10.30277824,31.71695093,1.0
1330,6.360346983,16.84933662,25.93589783,13.15507889,33.60992474,1.0
1331,6.365088962,17.46829796,26.11081505,15.43751049,35.00332593,1.0
1332,6.369830993,16.25623703,25.53665543,18.09179878,35.26611966,1.0
1333,6.374573025,14.17079067,24.89459419,20.50722122,35.22922438,1.0
1334,6.379315056,10.87233353,23.15736771,25.28914261,35.97237898,1.0
1335,6.384057035,6.566293716,20.3396225,28.29596329,35.46093618,1.0
1336,6.388799066,3.821744442,17.95247269,23.9037838,30.13781488,1.0
1337,6.393541098,0.8635559082,14.72572994,21.35775566,25.95662879,1.0
1338,6.398283129,-1.361852646,11.74569798,13.7332592,18.12231971,1.0
1339,6.40302516,-4.37773037,9.523556709,-5.023276329,11.62307879,1.0
1340,6.407767139,-5.987740517,8.821708679,-14.40913773,17.92481047,1.0
1341,6.412509171,-5.627422333,8.481596947,-17.29024696,20.06384831,1.0
1342,6.417251202,-4.37769413,7.876584053,-16.23879433,18.5715703,1.0
1343,6.421993233,-2.382997513,6.839409828,-12.25193119,14.23256905,1.0
1344,6.426735264,0.3107795715,5.493515015,-7.56599617,9.355190495,1.0
1345,6.431477243,2.09144187,4.137098312,-3.563723087,5.847207349,1.0
1346,6.436219275,2.461882114,2.389159203,-1.169514537,3.62445989,1.0
1347,6.440961306,2.12903595,0.4459199905,0.01797127724,2.175307261,1.0
1348,6.445703337,1.330926418,-1.520833969,0.8488066196,2.191979418,1.0
1349,6.450445368,0.06463861465,-2.995456696,1.927550316,3.562637953,1.0
1350,6.455187348,-1.562021971,-4.589276791,1.833132386,5.182832087,1.0
1351,6.459929379,-1.964332819,-6.640037537,2.605569839,7.398492826,1.0
1352,6.46467141,-2.498052359,-8.121507645,1.738583207,8.673051572,1.0
1353,6.469413441,-2.494916439,-9.172719955,-1.616058469,9.642356786,1.0
1354,6.474155473,-3.034842253,-10.74438095,-0.9211392403,11.20269999,1.0
1355,6.478897504,-2.967938185,-12.36592579,0.1510733366,12.71800302,1.0
1356,6.483639483,-3.076452017,-13.83026123,0.1915637255,14.16959348,1.0
1357,6.488381514,-2.835506439,-15.23631859,0.2386242151,15.4997562,1.0
1358,6.493123546,-2.50430584,-16.40750504,-0.4934448004,16.60485643,1.0
1359,6.497865577,-2.022977114,-17.5712738,-1.483549833,17.74945125,1.0
1360,6.502607608,-1.776359797,-18.32118607,-2.248675823,18.54394392,1.0
1361,6.507349639,-1.351874113,-18.9515934,-3.193266153,19.26622445,1.0
1362,6.512091671,-0.4804244041,-19.27567101,-3.546627522,19.60512349,1.0
1363,6.51683365,0.4062035084,-19.62332535,-4.078195095,20.04673475,1.0
1364,6.521575681,1.079814196,-19.75269127,-4.57784462,20.30496177,1.0
1365,6.526317712,1.347801208,-19.53741074,-4.415635109,20.07547807,1.0
1366,6.531059743,1.81172657,-19.09993744,-4.30848074,19.66349332,1.0
1367,6.535801775,2.452693462,-18.61279678,-3.876193523,19.16968402,1.0
1368,6.540543806,3.038591385,-18.13365746,-2.942797661,18.62048948,1.0
1369,6.545285837,3.296338558,-17.88524437,-1.720856667,18.26770817,1.0
1370,6.550027868,3.687325478,-17.96315002,-0.4736308455,18.34381242,1.0
1371,6.554769848,3.725091934,-18.35058784,0.6719135046,18.73691148,1.0
1372,6.559511879,3.231509209,-18.92590714,1.61528194,19.26763474,1.0
1373,6.56425391,2.456677914,-19.43129349,1.997659802,19.68758689,1.0
1374,6.568995941,1.631742954,-19.65208054,1.838623285,19.80523643,1.0
1375,6.573737973,0.9524230957,-19.40468407,1.512088537,19.48679772,1.0
1376,6.578480004,0.4807887077,-18.55811691,1.20987165,18.60372679,1.0
1377,6.583222035,0.4685661793,-16.94766235,1.276409507,17.00211854,1.0
1378,6.587964066,1.142003059,-14.82669258,1.679696083,14.96517166,1.0
1379,6.592706098,1.923595428,-12.90968609,2.133426428,13.22541956,1.0
1380,6.597448129,2.862789154,-11.21215057,2.408642054,11.81987474,1.0
1381,6.60219016,3.661684513,-9.764186859,2.431795359,10.70798334,1.0
1382,6.606932139,3.822705746,-8.66355896,2.323396683,9.750307955,1.0
1383,6.611674171,3.214790344,-7.145253181,4.847576141,9.21349632,1.0
1384,6.616416202,3.19203186,-6.24020195,4.378740311,8.264535951,1.0
1385,6.621158233,4.03989315,-5.842019081,0.8412833214,7.152459803,1.0
1386,6.625900264,4.22704649,-5.655927658,0.07888972759,7.06142077,1.0
1387,6.630642296,4.376701832,-5.707849503,-0.323525399,7.199981497,1.0
1388,6.635384327,4.633383751,-5.925496101,-1.048901081,7.594731233,1.0
1389,6.640126358,4.820829868,-6.236698151,-1.83271873,8.092939045,1.0
1390,6.644868389,4.860527992,-6.471529961,-2.310286522,8.416819839,1.0
1391,6.649610421,4.934527397,-6.587054253,-2.68411541,8.656980992,1.0
1392,6.654352452,4.877375126,-6.645816803,-2.627904177,8.6522569,1.0
1393,6.659094483,4.786440849,-6.717460632,-3.09932971,8.81136414,1.0
1394,6.663836514,4.797514439,-6.735097408,-3.479272366,8.971232807,1.0
1395,6.668578546,4.958304405,-6.732174873,-3.645874023,9.121368236,1.0
1396,6.673320577,5.206763268,-6.727645397,-3.639734745,9.253067887,1.0
1397,6.678062608,5.473788738,-6.675861359,-3.546703339,9.333198412,1.0
1398,6.682804639,5.699790001,-6.60303545,-3.423648119,9.370648305,1.0
1399,6.687546671,5.781861305,-6.607215405,-3.265238762,9.367336853,1.0
1400,6.692288702,5.614409447,-6.721930504,-3.271876335,9.349391311,1.0
1401,6.697030733,5.259147167,-6.763203621,-3.308709621,9.184068352,1.0
1402,6.701772764,4.626896858,-6.851111412,-3.25737071,8.885739477,1.0
1403,6.706514796,3.85348773,-6.954973698,-3.130888462,8.545378247,1.0
1404,6.711256827,3.244748831,-7.029701233,-3.155061722,8.360592615,1.0
1405,6.715998858,2.86014843,-7.049277782,-3.326148033,8.30277225,1.0
1406,6.720740889,2.687702894,-7.042593002,-3.848562241,8.463645454,1.0
1407,6.725482921,2.66992712,-7.007513046,-4.517482281,8.754507186,1.0
1408,6.730224952,2.601203203,-7.102593422,-4.212649822,8.657916028,1.0
1409,6.734966983,2.35586977,-7.003816605,-2.997036934,7.974070465,1.0
1410,6.739709014,2.344806194,-6.844144821,-2.073734999,7.526008987,1.0
1411,6.744451046,2.353460312,-7.107561111,-0.8849576116,7.539187646,1.0
1412,6.749193077,2.54088068,-7.186510563,-0.6685999632,7.651734092,1.0
1413,6.753935108,2.901635885,-7.449312687,-0.6288260221,8.0191753,1.0
1414,6.758677139,3.37623024,-7.952343941,-1.071519852,8.705564863,1.0
1415,6.763419171,3.829050779,-8.450091362,-2.36128974,9.572949552,1.0
1416,6.768161202,3.734674454,-9.175713539,-3.637928963,10.5534847,1.0
1417,6.772903233,3.397894859,-9.850581169,-4.720998287,11.4397318,1.0
1418,6.777645264,3.072929382,-10.11773777,-5.635038853,11.98186861,1.0
1419,6.782387296,2.530304909,-10.23812103,-5.654369354,11.96634689,1.0
1420,6.787129327,2.334552288,-9.991958618,-5.507152557,11.64551848,1.0
1421,6.791871358,2.248543262,-9.571170807,-4.951289177,11.00811164,1.0
1422,6.796613389,2.228883505,-9.217857361,-4.162723541,10.35688579,1.0
1423,6.801355421,2.24879694,-8.949108124,-3.314733505,9.804645945,1.0
1424,6.806097452,2.2862854,-8.70543766,-2.499218464,9.341190434,1.0
1425,6.810839483,2.338802099,-8.570589066,-1.959678411,9.097545365,1.0
1426,6.815581514,2.410739422,-8.393881798,-1.595393062,8.877735929,1.0
1427,6.820323546,2.29757309,-8.40305233,-0.8651775122,8.754351072,1.0
1428,6.825065629,2.402043819,-8.541095734,0.2501510382,8.875962279,1.0
1429,6.82980766,2.957576513,-8.487442017,0.8453766108,9.027657084,1.0
1430,6.834549691,3.410671473,-8.24932003,1.308890581,9.022037209,1.0
1431,6.839291723,4.261576653,-7.783135891,0.9962184429,8.929204391,1.0
1432,6.844033754,4.522882462,-7.200633049,0.1786708832,8.505145816,1.0
1433,6.848775785,3.822381258,-6.408144951,-0.6137362123,7.486761138,1.0
1434,6.853517816,1.983729362,-5.369998932,-1.155716181,5.840184124,1.0
1435,6.858259848,0.8788406849,-3.930850983,-1.444668055,4.279137318,1.0
1436,6.863001879,0.1922399998,-2.523571968,-1.485224605,2.934495497,1.0
1437,6.86774391,-0.9135859013,-1.348756313,-1.132410169,1.983969652,1.0
1438,6.872485941,-1.891368866,-0.09994602203,-0.5716256499,1.978388556,1.0
1439,6.877228025,-2.055080414,1.457692146,0.175979495,2.525705977,1.0
1440,6.881970056,-0.8127424717,3.279819489,1.328155637,3.630669855,1.0
1441,6.886712087,0.8625534773,5.743376732,2.790399551,6.443345749,1.0
1442,6.891454118,3.452927589,10.29870129,4.724058628,11.84494352,1.0
1443,6.89619615,7.495763779,18.39266586,7.613314629,21.27061804,1.0
1444,6.900938181,13.65593338,30.09215355,10.31432819,34.61802403,1.0
1445,6.905680212,20.09271812,44.05619812,12.09687424,49.90992167,1.0
1446,6.910422243,21.73917389,56.80546188,14.27198029,62.47512787,1.0
1447,6.915164327,15.05503654,61.13579559,16.05566025,64.97710254,1.0
1448,6.919906358,0.01528215408,55.69081497,19.8133297,59.11036406,1.0
1449,6.924648389,-12.72537041,48.64372635,24.86777878,56.09414931,1.0
1450,6.929390421,-19.65184784,41.76051712,28.16065216,54.06623941,1.0
1451,6.934132452,-21.45557594,35.21421051,29.46529579,50.68121957,1.0
1452,6.938874483,-20.63909912,29.76290703,29.46523285,46.69050218,1.0
1453,6.943616514,-17.79812622,26.41056061,27.02232361,41.76717589,1.0
1454,6.948358598,-13.10276794,25.52263451,21.94598389,36.1208196,1.0
1455,6.953100629,-8.221674919,26.12385368,16.75959969,32.10818979,1.0
1456,6.95784266,-4.792053223,26.80839539,12.56899166,29.99388919,1.0
1457,6.962584691,-2.890971184,27.23439598,9.706185341,29.05649794,1.0
1458,6.967326723,-2.410400629,27.38174629,7.921923637,28.60641423,1.0
1459,6.972068754,-2.860505581,27.2556076,7.043438911,28.29594794,1.0
1460,6.976810837,-3.688256741,26.82961273,6.320030689,27.80960527,1.0
1461,6.981552868,-4.182760239,26.08742905,5.192783833,26.9260922,1.0
1462,6.9862949,-4.187651634,24.88849258,4.14659977,25.57670383,1.0
1463,6.991036931,-3.852185726,23.06800652,3.645849466,23.66990659,1.0
1464,6.995778962,-3.403832674,21.07819366,3.516531229,21.63890748,1.0
1465,7.000520993,-2.897268057,19.20802879,3.621143341,19.75993956,1.0
1466,7.005263077,-2.348016739,17.68156242,4.136174202,18.31007289,1.0
1467,7.010005108,-1.943182945,16.3781414,4.994609833,17.23268996,1.0
1468,7.014747139,-1.283469439,15.25601768,6.008145332,16.44661606,1.0
1469,7.019489171,-0.05380558968,14.48869801,7.201517105,16.17983664,1.0
1470,7.024231202,1.22091794,14.20379162,8.791176796,16.74882463,1.0
1471,7.028973285,1.957241535,14.00709534,10.4168129,17.56529263,1.0
1472,7.033715316,2.300119877,13.41859055,12.12949657,18.2338644,1.0
1473,7.038457348,2.468784332,12.71949959,13.66235447,18.82924575,1.0
1474,7.043199379,1.916623235,11.60333157,14.72771263,18.84718195,1.0
1475,7.047941462,1.458058119,10.28442287,15.05660534,18.29198326,1.0
1476,7.052683493,1.352229357,8.980575562,13.86490059,16.57452051,1.0
1477,7.057425525,1.619348764,7.773602486,11.84931564,14.26385177,1.0
1478,7.062167556,1.573220849,6.130501747,9.365544319,11.30360544,1.0
1479,7.066909587,1.579534531,3.963513374,6.260339737,7.576029384,1.0
1480,7.071651671,1.704773903,1.318656921,3.099427223,3.775123739,1.0
1481,7.076393702,1.53395772,-1.354869843,0.4159121513,2.088463908,1.0
1482,7.081135733,0.5240678787,-4.254160404,-6.740229607,7.987691972,1.0
1483,7.085877764,-0.5537564754,-6.838490009,-13.15753651,14.83887997,1.0
1484,7.090619848,-0.5352210999,-8.512083054,-12.24381828,14.92156512,1.0
1485,7.095361879,-0.4314160347,-10.0069418,-11.52959442,15.27273883,1.0
1486,7.10010391,-0.08039188385,-11.47755241,-10.0607872,15.26303087,1.0
1487,7.104845941,0.4090294838,-12.90096664,-8.780937195,15.61112115,1.0
1488,7.109588025,0.8083198071,-14.38072395,-8.305216789,16.6263414,1.0
1489,7.114330056,0.9408326149,-15.86249542,-8.203989983,17.883215,1.0
1490,7.119072087,0.8469152451,-17.2538166,-8.276360512,19.15488439,1.0
1491,7.123814118,0.5217723846,-18.47182655,-8.376848221,20.2892141,1.0
1492,7.128556202,0.7132284641,-20.24860191,-6.547756195,21.29290223,1.0
1493,7.133298233,2.449259281,-24.72034073,-0.2651759386,24.84279443,1.0
1494,7.138040264,3.589657784,-31.55332947,6.626691818,32.44088914,1.0
1495,7.142782348,4.107549191,-36.68399429,6.526592255,37.48578136,1.0
1496,7.147524379,4.327932835,-37.28739548,1.07505393,37.55311712,1.0
1497,7.15226641,3.047021627,-34.09209061,-3.258468628,34.38273696,1.0
1498,7.157008441,0.3581385612,-28.56170654,-4.510871887,28.91794095,1.0
1499,7.161750525,-2.106868267,-22.78446579,-3.978769064,23.22501622,1.0
1500,7.166492556,-3.288516521,-18.17019272,-3.083704472,18.72109713,1.0
1501,7.171234587,-3.585239887,-14.76787376,-2.100635052,15.34133984,1.0
1502,7.175976671,-3.240702152,-12.38908768,-1.300699592,12.87180886,1.0
1503,7.180718702,-3.098425865,-10.90773582,-0.7707529068,11.3654302,1.0
1504,7.185460733,-2.18749094,-10.01801586,-0.0768802166,10.25434878,1.0
1505,7.190202816,-1.690947533,-9.615662575,0.6613021493,9.785580762,1.0
1506,7.194944848,-1.193522453,-9.448393822,1.430767298,9.630354963,1.0
1507,7.199686879,-0.595916748,-9.23299408,2.138341427,9.49609396,1.0
1508,7.204428962,-0.02659249306,-8.858920097,2.60139966,9.233008862,1.0
1509,7.209170993,0.4458804131,-8.495544434,2.823573112,8.963573489,1.0
1510,7.213913025,0.8125393391,-8.154356956,2.829756021,8.669560352,1.0
1511,7.218655108,1.198489904,-7.913721085,2.49771452,8.384625053,1.0
1512,7.223397139,1.410890341,-7.72036171,2.309366465,8.180939429,1.0
1513,7.228139171,1.893947005,-7.834181786,2.181081295,8.349763777,1.0
1514,7.232881202,2.316762447,-7.988834381,1.968207359,8.547672386,1.0
1515,7.237623285,2.491767406,-8.246126175,1.516767502,8.746890039,1.0
1516,7.242365316,2.477646828,-8.58657074,0.8169518709,8.974148496,1.0
1517,7.2471074,2.394948721,-8.928637505,-0.08253005147,9.244628617,1.0
1518,7.251849431,2.284986496,-9.140780449,-0.8700293899,9.462134096,1.0
1519,7.256591462,2.301441669,-9.232697487,-1.517902613,9.635526191,1.0
1520,7.261333546,2.372847557,-9.173489571,-1.863908172,9.656990737,1.0
1521,7.266075577,2.561800003,-9.023107529,-2.267661572,9.649952214,1.0
1522,7.270817608,2.796989679,-8.817459106,-2.73256135,9.645601479,1.0
1523,7.275559691,3.220050335,-8.604314804,-3.12816906,9.705070792,1.0
1524,7.280301723,3.601514339,-8.402733803,-3.477100611,9.78095443,1.0
1525,7.285043754,3.910085201,-8.196001053,-3.818270206,9.851009436,1.0
1526,7.289785837,4.118898392,-8.012909889,-4.092134953,9.895333108,1.0
1527,7.294527868,4.289156914,-7.884681225,-4.262839794,9.936642701,1.0
1528,7.299269952,4.46037817,-7.799431801,-4.301669598,9.96144925,1.0
1529,7.304011983,4.590637207,-7.903102875,-4.318248749,10.10842506,1.0
1530,7.308754014,4.726232529,-7.870510101,-3.919294834,9.982137805,1.0
1531,7.313496098,5.076601982,-7.852522373,-3.529745102,9.99465336,1.0
1532,7.318238129,5.300665379,-7.961700439,-3.131493092,10.0643915,1.0
1533,7.32298016,5.399188995,-8.002241135,-2.680237293,10.01852169,1.0
1534,7.327722243,5.649150848,-8.034145355,-2.104604244,10.04438928,1.0
1535,7.332464275,5.959721088,-8.083657265,-1.689959526,10.18428954,1.0
1536,7.337206358,6.043951035,-8.186668396,-1.465675235,10.28100615,1.0
1537,7.341948389,6.136497498,-8.381520271,-1.245772719,10.46223844,1.0
1538,7.346690421,6.000421524,-8.591989517,-1.059193492,10.53324419,1.0
1539,7.351432504,5.769892693,-8.732458115,-0.8485718369,10.50083618,1.0
1540,7.356174535,5.358777046,-8.791742325,-0.5421157479,10.31043714,1.0
1541,7.360916618,4.724020004,-8.825819969,-0.1753987074,10.01210407,1.0
1542,7.36565865,3.982805014,-8.84997654,0.1677815914,9.706336651,1.0
1543,7.370400681,3.400509119,-8.893754959,0.4320054054,9.53147251,1.0
1544,7.375142764,2.926635027,-8.7643013,0.7533740997,9.27069266,1.0
1545,7.379884796,2.687163353,-8.584479332,1.010509133,9.051809819,1.0
1546,7.384626879,2.639145136,-8.319027901,1.04587853,8.790061101,1.0
1547,7.38936891,2.950426817,-8.168731689,0.2504093647,8.688837705,1.0
1548,7.394110993,3.219272375,-8.096712112,-1.52656436,8.845951639,1.0
1549,7.398853025,3.011826515,-7.767085075,-3.348951817,8.978540405,1.0
1550,7.403595108,2.837141275,-7.286668777,-4.845944405,9.199352676,1.0
1551,7.408337139,2.502720356,-7.08533287,-5.481002808,9.300910861,1.0
1552,7.413079171,2.293985605,-7.157512665,-5.750917435,9.463900298,1.0
1553,7.417821254,2.302227974,-7.313538074,-5.874669552,9.65918398,1.0
1554,7.422563285,2.180951834,-7.416692734,-5.721579552,9.617710464,1.0
1555,7.427305368,1.966442466,-7.445400238,-5.308884621,9.353348951,1.0
1556,7.4320474,1.689680815,-7.445281029,-4.665527821,8.947311367,1.0
1557,7.436789483,1.620733738,-7.540935516,-3.759978294,8.580788022,1.0
1558,7.441531514,1.691892982,-7.67048645,-2.861570358,8.35987136,1.0
1559,7.446273546,1.928597212,-7.820048809,-1.945001245,8.285872339,1.0
1560,7.451015629,2.437524319,-7.908703804,-1.064374208,8.343980652,1.0
1561,7.45575766,3.211183071,-8.024964333,-0.5064514875,8.658420316,1.0
1562,7.460499743,4.07257843,-8.144688606,-0.04394137859,9.106249415,1.0
1563,7.465241775,4.979100227,-8.200546265,0.4397213459,9.603840533,1.0
1564,7.469983858,5.665221214,-8.221013069,0.6346122026,10.00412515,1.0
1565,7.474725889,5.733375549,-8.330373764,0.5104045868,10.12557332,1.0
1566,7.479467973,5.403108597,-8.387447357,0.144461751,9.9781624,1.0
1567,7.484210004,5.08987999,-8.313476562,0.341622591,9.753844209,1.0
1568,7.488952035,4.998057365,-8.245196342,1.187018871,9.714569159,1.0
1569,7.493694118,4.814468384,-8.484464645,2.522407532,10.07609974,1.0
1570,7.498436202,4.146456242,-8.826126099,3.611607313,10.39890901,1.0
1571,7.503178233,3.674506664,-8.940291405,4.051143646,10.48058083,1.0
1572,7.507920264,3.992840767,-8.348268509,4.193492889,10.15981039,1.0
1573,7.512662348,4.502949715,-7.587801456,4.194107533,9.769433201,1.0
1574,7.517404379,4.901343346,-6.574379444,4.076992035,9.157919836,1.0
1575,7.522146462,4.621333122,-5.243073463,4.041152,8.073255146,1.0
1576,7.526888493,4.333638668,-3.266043663,4.08214283,6.79053425,1.0
1577,7.531630577,4.403662682,-1.051968575,3.792796612,5.90628386,1.0
1578,7.536372608,4.814663887,1.610431671,3.336785078,6.075245935,1.0
1579,7.541114691,6.38368988,5.568547249,2.579659939,8.855216562,1.0
1580,7.545856723,9.899802208,12.95146465,1.86675787,16.40826942,1.0
1581,7.550598806,16.40419579,25.76112747,-0.2926965952,30.54208571,1.0
1582,7.555340837,26.11326218,45.75873184,-3.941482544,52.83274823,1.0
1583,7.560082921,31.49851036,65.8477478,-9.223861694,73.5741916,1.0
1584,7.564824952,28.44878578,69.19814301,-12.70562172,75.8890587,1.0
1585,7.569567035,13.04970455,69.44906616,-8.61550045,71.18774071,1.0
1586,7.574309066,-11.33475494,69.19055939,0.7731027603,70.11710109,1.0
1587,7.57905115,-32.02189255,60.7575264,14.66669846,70.22813297,1.0
1588,7.583793181,-42.16007233,49.19397736,28.49714088,70.77857123,1.0
1589,7.588535264,-42.41979218,37.88280106,37.62878036,68.19435824,1.0
1590,7.593277296,-38.54667664,29.35599518,40.98812103,63.46374397,1.0
1591,7.598019379,-32.6011734,23.51780319,38.17321014,55.43570642,1.0
1592,7.60276141,-25.81326866,19.91119003,31.69117737,45.46549296,1.0
1593,7.607503493,-18.23794937,18.73626709,24.98848724,36.16759595,1.0
1594,7.612245577,-10.89993668,19.80246162,19.1120224,29.60093759,1.0
1595,7.616987608,-5.325237274,21.58955383,13.587286,26.05918893,1.0
1596,7.621729639,-2.282583714,23.93557549,9.976369858,26.03170985,1.0
1597,7.626471723,-1.340162516,26.68188095,9.815011978,28.46143473,1.0
1598,7.631213806,-0.8505654335,28.55457878,8.596896172,29.83276814,1.0
1599,7.635955837,-0.330704689,29.77120972,5.709230423,30.31550108,1.0
1600,7.640697921,0.2893395424,29.59518814,3.037985563,29.75211311,1.0
1601,7.645439952,-0.01805496216,27.07985306,1.541726112,27.12371079,1.0
1602,7.650182035,1.904852152,23.68074036,1.550962687,23.80780147,1.0
1603,7.654924066,3.405649662,20.71461487,2.055114508,21.09306081,1.0
1604,7.65966615,3.758862495,18.18069839,2.246371508,18.70061567,1.0
1605,7.664408181,4.018627167,15.94855881,2.413151264,16.62315227,1.0
1606,7.669150264,4.169499397,13.85095596,4.326385498,15.09805676,1.0
1607,7.673892296,4.227784157,11.97469234,5.928570747,14.01482668,1.0
1608,7.678634379,4.287236691,10.16372967,5.942569733,12.52980184,1.0
1609,7.68337641,4.15972662,8.181893349,5.142110825,10.52083685,1.0
1610,7.688118493,4.035362244,5.669168472,4.526082516,8.301147062,1.0
1611,7.692860525,3.730353355,3.112689972,3.429558277,5.94695258,1.0
1612,7.697602608,3.49801898,0.7700519562,1.638145208,3.93860845,1.0
1613,7.702344639,3.655303001,-1.136831284,-1.263093472,4.031008623,1.0
1614,7.707086723,3.769366741,-2.415410995,-4.634044647,6.443345847,1.0
1615,7.711828806,3.456917286,-3.750216007,-6.046365738,7.910305674,1.0
1616,7.716570837,2.38410902,-5.335922241,-6.602279186,8.817376732,1.0
1617,7.721312921,0.6314222813,-6.688275337,-8.952301025,11.19265003,1.0
1618,7.726054952,-0.9942648411,-8.12979126,-10.00586891,12.93056384,1.0
1619,7.730797035,-2.12534833,-9.829561234,-9.800523758,14.04235185,1.0
1620,7.735539066,-2.229021072,-11.3842659,-9.852602959,15.21984987,1.0
1621,7.74028115,-1.832208633,-12.77793789,-9.705048561,16.14994281,1.0
1622,7.745023233,-1.6278162,-14.20458221,-9.678386688,17.26531524,1.0
1623,7.749765264,-1.003594398,-15.63767719,-9.229953766,18.18615397,1.0
1624,7.754507348,-0.6187109947,-16.60635948,-8.16385746,18.51492768,1.0
1625,7.759249379,-0.4229183197,-17.17402267,-6.689201355,18.43559952,1.0
1626,7.763991462,0.2349267006,-17.43716431,-4.913760662,18.11780708,1.0
1627,7.768733493,0.7090575695,-17.69068527,-2.954494476,17.94971158,1.0
1628,7.773475577,0.6931066513,-17.90208435,-1.245550632,17.95874209,1.0
1629,7.778217608,0.4520940781,-18.31376648,-0.2604653835,18.32119739,1.0
1630,7.782959691,0.9090535641,-19.74329376,0.247890234,19.76576527,1.0
1631,7.787701775,1.519925117,-20.99875259,2.183773994,21.16664007,1.0
1632,7.792443806,3.52308774,-22.23241806,4.625591278,22.98017961,1.0
1633,7.797185889,6.105204105,-23.22555923,8.445484161,25.45636112,1.0
1634,7.801927921,8.375167847,-23.12837982,11.93424892,27.3402942,1.0
1635,7.806670004,9.3097229,-22.46973038,13.3567276,27.74818725,1.0
1636,7.811412035,6.519061089,-22.34893799,12.10170746,26.237845,1.0
1637,7.816154118,0.9663071632,-21.28807259,10.02287674,23.54939154,1.0
1638,7.820896202,-3.587795734,-19.89536285,7.550244331,21.58017448,1.0
1639,7.825638233,-6.199832916,-18.33442307,5.872364998,20.22556966,1.0
1640,7.830380316,-7.55364418,-16.89712906,4.860276699,19.13616473,1.0
1641,7.835122348,-8.046113014,-15.85293388,3.862252712,18.19264806,1.0
1642,7.839864431,-7.665811539,-15.25523376,2.772850275,17.29669108,1.0
1643,7.844606462,-6.42367363,-14.8316021,1.41999805,16.22517791,1.0
1644,7.849348546,-4.879953861,-14.3720665,0.1896787882,15.17913776,1.0
1645,7.854090629,-3.529357195,-13.81534576,-0.6077131629,14.27198151,1.0
1646,7.85883266,-2.150563002,-13.26294518,-0.6872860193,13.45373547,1.0
1647,7.863574743,-0.9604532719,-12.67782021,-0.8575319052,12.74303561,1.0
1648,7.868316775,-0.008979558945,-12.15725422,-1.003239393,12.19858189,1.0
1649,7.873058858,0.816239953,-11.70533562,-1.378358245,11.81444036,1.0
1650,7.877800941,1.502717137,-11.29290581,-1.77525425,11.5299353,1.0
1651,7.882542973,2.013734102,-10.98910522,-2.055521965,11.35960955,1.0
1652,7.887285056,2.343446732,-10.73161888,-2.209911108,11.20460144,1.0
1653,7.892027087,2.528780699,-10.53724194,-2.252801657,11.06812155,1.0
1654,7.896769171,2.644703627,-10.38216686,-2.23669982,10.94470978,1.0
1655,7.901511254,2.629719019,-10.22350407,-2.199680328,10.78304461,1.0
1656,7.906253285,2.690077782,-10.05671787,-2.124524593,10.62486224,1.0
1657,7.910995368,2.696687698,-9.937114716,-1.962619543,10.48190101,1.0
1658,7.9157374,2.599036455,-9.814716339,-2.091930389,10.36628285,1.0
1659,7.920479483,2.548619747,-9.675196648,-2.398980141,10.28882882,1.0
1660,7.925221566,2.724864006,-9.535051346,-3.498404264,10.51574631,1.0
1661,7.929963598,2.857998371,-9.394529343,-3.30249095,10.36010534,1.0
1662,7.934705681,2.899244547,-9.122673988,-2.351830006,9.856972355,1.0
1663,7.939447712,3.080238104,-8.782115936,-1.870345592,9.492714034,1.0
1664,7.944189796,3.30989933,-8.552442551,-1.859562874,9.357226151,1.0
1665,7.948931879,3.523676395,-8.373800278,-2.097153664,9.323887597,1.0
1666,7.95367391,3.690366507,-8.200778008,-2.315132618,9.286086577,1.0
1667,7.958415993,3.852591038,-8.081285477,-2.401031733,9.269012139,1.0
1668,7.963158077,3.835005522,-7.929251671,-2.424256086,9.135497632,1.0
1669,7.967900108,4.09173584,-7.711258888,-2.513975382,9.08437604,1.0
1670,7.972642191,4.179540634,-7.625844955,-2.526602745,9.055704977,1.0
1671,7.977384223,4.34946394,-7.610684395,-2.421180725,9.094089818,1.0
1672,7.982126306,4.669151783,-7.531847954,-1.276195765,8.953121668,1.0
1673,7.986868389,4.653392315,-7.621355057,-0.7327517271,8.959689617,1.0
1674,7.991610421,4.646631241,-7.790441513,-1.20400393,9.150507435,1.0
1675,7.996352504,4.438704014,-7.960186958,-1.200484991,9.192814256,1.0
1676,8.001094587,4.137489319,-7.890110016,0.09883904457,8.909681424,1.0
1677,8.005836618,3.087574482,-7.279669762,6.530636311,10.25553112,1.0
1678,8.010578702,2.214334488,-7.111503601,8.286365509,11.14184069,1.0
1679,8.015320733,1.982161641,-7.274851322,6.274675369,9.809382117,1.0
1680,8.020062816,1.979539156,-7.708067894,1.655479431,8.12856064,1.0
1681,8.0248049,1.919007063,-8.253887177,-3.719620705,9.25444865,1.0
1682,8.029546931,1.605204582,-8.579363823,-7.247853756,11.3451994,1.0
1683,8.034289014,0.799978137,-8.606946945,-8.075325012,11.829217,1.0
1684,8.039031098,0.5862538815,-8.541239738,-8.45451355,12.03225952,1.0
1685,8.043773129,1.563183546,-8.379410744,-12.70611,15.30043459,1.0
1686,8.048515212,2.23126483,-8.627732277,-13.69618511,16.34018952,1.0
1687,8.053257243,2.347247839,-9.402328491,-12.45443821,15.78056984,1.0
1688,8.057999327,2.106446981,-9.891639709,-10.49221039,14.57285606,1.0
1689,8.06274141,1.732192874,-9.918896675,-9.180785179,13.62614472,1.0
1690,8.067483441,1.164864779,-9.577961922,-8.186979294,12.65388851,1.0
1691,8.072225525,0.6547012329,-9.139735222,-6.988193989,11.52381225,1.0
1692,8.076967608,0.2365631759,-8.709795952,-5.652878761,10.38612276,1.0
1693,8.081709639,0.02262121439,-8.300156593,-4.587238312,9.483452247,1.0
1694,8.086451723,-0.02278667688,-7.82455349,-3.980465412,8.778853082,1.0
1695,8.091193806,0.01708018035,-7.387978554,-3.790418625,8.303601158,1.0
1696,8.095935837,0.1140078083,-7.085722923,-3.554332256,7.928035375,1.0
1697,8.100677921,0.2230251133,-6.874246597,-3.381859064,7.664331491,1.0
1698,8.105420004,0.2151306123,-6.853530884,-3.232047081,7.580454808,1.0
1699,8.110162035,-0.1539739072,-7.030211449,-3.102216005,7.685787215,1.0
1700,8.114904118,0.04169212282,-7.343823433,-3.624236584,8.189540382,1.0
1701,8.119646202,-0.3641441166,-7.679264069,-3.579097748,8.480190933,1.0
1702,8.124388233,-1.179546714,-7.709269047,-2.028164625,8.058387645,1.0
1703,8.129130316,-1.451405048,-7.468272209,0.3153880835,7.614534526,1.0
1704,8.1338724,-1.17820406,-7.179560661,2.696263552,7.75912967,1.0
1705,8.138614431,-0.6116149426,-6.86521244,4.876036167,8.442804238,1.0
1706,8.143356514,0.1311116517,-6.59492588,6.4958992,9.257804494,1.0
1707,8.148098598,0.8965850472,-6.500138283,7.283988953,9.803680814,1.0
1708,8.152840629,1.461105585,-6.534702301,7.069101334,9.737009672,1.0
1709,8.157582712,1.586565375,-6.004460335,6.748881817,9.171594157,1.0
1710,8.162324796,1.332570553,-4.548447609,6.803645134,8.291785516,1.0
1711,8.167066827,2.208314419,-1.921014786,7.219755173,7.790495179,1.0
1712,8.17180891,5.309262276,2.051241875,8.192070961,9.975263694,1.0
1713,8.176550993,9.394238472,7.502837181,9.394493103,15.25781055,1.0
1714,8.181293025,14.41274834,15.50825787,9.628211975,23.25802748,1.0
1715,8.186035108,22.36836624,28.90642166,8.839996338,37.60412952,1.0
1716,8.190777191,30.49005318,45.05906677,8.677990913,55.09328786,1.0
1717,8.195519223,32.80780792,58.11798859,8.360452652,67.26031539,1.0
1718,8.200261306,21.47777557,62.28095245,11.39181328,66.85794861,1.0
1719,8.205003389,-5.341248512,57.33525848,18.78661919,60.57060229,1.0
1720,8.209745473,-37.18851471,51.43131638,26.40017509,68.73961867,1.0
1721,8.214487504,-58.09615326,47.04899216,29.66985703,80.43053588,1.0
1722,8.219229587,-58.26469421,41.22302628,29.45602036,77.21249654,1.0
1723,8.223971671,-42.81222153,34.38299561,27.18660164,61.27142897,1.0
1724,8.228713702,-27.3070507,29.57507515,24.15282631,46.94378667,1.0
1725,8.233455785,-15.53718948,25.96497345,19.49471664,35.99483408,1.0
1726,8.238197868,-7.466969967,22.88320351,15.47922516,28.61822941,1.0
1727,8.2429399,-3.044862032,19.60508728,12.87462139,23.6513532,1.0
1728,8.247681983,-0.2491359711,17.26456261,11.12688255,20.54104929,1.0
1729,8.252424066,1.159892678,15.98312378,11.03302574,19.45593107,1.0
1730,8.25716615,0.2340344191,15.10904121,12.4215107,19.56097714,1.0
1731,8.261908181,-2.251092911,14.91651821,14.42469025,20.87202969,1.0
1732,8.266650264,-5.056200027,15.28029537,16.00617981,22.69912724,1.0
1733,8.271392348,-7.367776871,15.6480999,16.62827492,23.99263831,1.0
1734,8.276134379,-9.767663956,15.75091457,16.80925179,25.02098149,1.0
1735,8.280876462,-12.14070702,15.87318897,15.82520866,25.49102046,1.0
1736,8.285618546,-13.67481422,16.09679794,13.62441063,25.13427964,1.0
1737,8.290360577,-13.54156876,16.37789536,10.62837315,23.76072087,1.0
1738,8.29510266,-12.05092239,16.53463745,6.831041336,21.57039851,1.0
1739,8.299844743,-9.988288879,16.62425041,2.903587818,19.61026361,1.0
1740,8.304586827,-8.425299644,16.42818069,-0.4680652618,18.46861879,1.0
1741,8.309328858,-7.384460449,15.77263546,-2.675379515,17.61998698,1.0
1742,8.314070941,-6.787800789,14.61966038,-3.399941683,16.47326053,1.0
1743,8.318813025,-5.687057495,13.45933723,-2.36852479,14.80223941,1.0
1744,8.323555056,-5.266052246,11.99859047,-0.1281318665,13.10396495,1.0
1745,8.328297139,-6.056844711,10.11873722,2.694503546,12.09688225,1.0
1746,8.333039223,-7.696015835,7.992247581,7.525651932,13.40671914,1.0
1747,8.337781306,-8.40694046,6.332404137,11.21967125,15.38366059,1.0
1748,8.342523337,-6.381466866,6.022507668,12.06625748,14.919393,1.0
1749,8.347265421,-4.323426247,5.007792473,17.55373573,18.75909481,1.0
1750,8.352007504,-0.9156996012,3.845861435,15.8397398,16.32563974,1.0
1751,8.356749587,3.155416012,3.034020424,9.358540535,10.33170901,1.0
1752,8.361491618,5.417908669,1.403892517,3.783479452,6.755691327,1.0
1753,8.366233702,6.497813225,-0.2997198105,-1.830604911,6.75740505,1.0
