"Time (s)","Linear Acceleration x (m/s^2)","Linear Acceleration y (m/s^2)","Linear Acceleration z (m/s^2)","Absolute acceleration (m/s^2)"
5.343568100E-2,0.000000000E0,0.000000000E0,0.000000000E0,0.000000000E0
5.817776400E-2,-5.585789680E-2,-4.129362106E-2,-2.512884140E-2,7.386965849E-2
6.291990000E-2,-9.475588799E-2,-9.141969681E-2,-4.832839966E-2,1.402564561E-1
6.766198300E-2,-1.231565475E-1,-1.716456413E-1,-9.466600418E-2,2.314981938E-1
7.240406600E-2,-1.457855701E-1,-2.283859253E-1,-2.066168785E-1,3.407405139E-1
7.714620200E-2,-2.198994160E-1,-2.711682320E-1,-3.721776009E-1,5.102980793E-1
8.188828500E-2,-2.294790745E-1,-2.968168259E-1,-5.082836151E-1,6.317539926E-1
8.663036800E-2,-2.397184372E-1,-3.184866905E-1,-6.360483170E-1,7.506371711E-1
9.137250400E-2,-1.686577797E-1,-3.014440536E-1,-7.621245384E-1,8.367483350E-1
9.611458700E-2,-9.917807579E-2,-2.694106102E-1,-8.056797981E-1,8.553001255E-1
1.008566710E-1,3.814172745E-2,-2.201681137E-1,-8.406376839E-1,8.698278595E-1
1.055988060E-1,1.540997028E-1,-1.295852661E-1,-9.285097122E-1,9.500891249E-1
1.103408890E-1,2.778565884E-1,-7.878208160E-2,-1.041257858E0,1.080568752E0
1.150829730E-1,4.212098122E-1,-6.853532791E-2,-1.086401939E0,1.167212051E0
1.198251080E-1,5.842957497E-1,-2.237367630E-2,-1.016446590E0,1.172631986E0
1.245671910E-1,6.349611282E-1,4.408740997E-2,-7.986545563E-1,1.021258260E0
1.293092750E-1,5.867421627E-1,8.269739151E-2,-6.150321960E-1,8.540315136E-1
1.340514100E-1,4.369671345E-1,7.933759689E-2,-6.364002228E-1,7.760412196E-1
1.387934930E-1,2.074441910E-1,-2.500534058E-3,-7.386074066E-1,7.671898371E-1
1.435355770E-1,-1.069116592E-2,-7.754945755E-2,-7.451348305E-1,7.492357006E-1
1.482776600E-1,-1.506607533E-1,-2.446055412E-1,-8.130578995E-1,8.623187817E-1
1.530197960E-1,-3.631005287E-1,-3.768358231E-1,-9.260702133E-1,1.063697923E0
1.577618790E-1,-5.772836208E-1,-4.372496605E-1,-1.117040634E0,1.331248821E0
1.625039620E-1,-7.000329494E-1,-5.067410469E-1,-1.319351673E0,1.577187832E0
1.672460980E-1,-7.796933651E-1,-5.115771294E-1,-1.448365688E0,1.722613152E0
1.719881810E-1,-8.049929142E-1,-4.314527512E-1,-1.415201187E0,1.684327601E0
1.767302640E-1,-7.506504059E-1,-2.833700180E-1,-1.331605911E0,1.554653949E0
1.814723480E-1,-4.528436661E-1,-2.562313080E-1,-1.201272964E0,1.309113671E0
1.862144830E-1,-2.535660267E-1,-1.396131516E-1,-1.168604851E0,1.203920620E0
1.909565660E-1,2.299070358E-2,-7.692432404E-2,-1.220857143E0,1.223494213E0
1.956986500E-1,2.348077297E-1,-2.859354019E-2,-1.248613358E0,1.270821615E0
2.004407850E-1,4.177026749E-1,2.969455719E-2,-1.245632648E0,1.314137735E0
2.051828680E-1,4.924292564E-1,7.942390442E-2,-1.159154415E0,1.261916672E0
2.099249520E-1,4.161562920E-1,5.583333969E-2,-9.586639404E-1,1.046584909E0
2.146670350E-1,2.742085457E-1,-2.773571014E-2,-7.142791748E-1,7.656071680E-1
2.194091710E-1,1.649737358E-2,-1.702904701E-1,-4.498167038E-1,4.812546878E-1
2.241512540E-1,-2.965641022E-1,-3.826284409E-1,-2.117714882E-1,5.283956412E-1
2.288933370E-1,-6.389713287E-1,-6.798644066E-1,-7.833147049E-2,9.362883047E-1
2.336354730E-1,-9.643621445E-1,-9.972817898E-1,-4.913187027E-2,1.388156783E0
2.383775560E-1,-1.224851608E0,-1.257834911E0,-1.184129715E-2,1.755719323E0
2.431196390E-1,-1.476037741E0,-1.442335129E0,9.659528732E-2,2.065998230E0
2.478617230E-1,-1.608703852E0,-1.548438787E0,2.818174362E-1,2.250558115E0
2.526038580E-1,-1.494930029E0,-1.515228987E0,4.862785339E-1,2.183392197E0
2.573459410E-1,-1.042268991E0,-1.278195381E0,7.471909523E-1,1.810635911E0
2.620880250E-1,2.897596359E-2,-1.061484575E0,1.234871864E0,1.628649020E0
2.668301080E-1,9.515283108E-1,-6.647369862E-1,1.239269257E0,1.697960446E0
2.715721910E-1,1.719812274E0,-1.146068573E-1,1.440603733E0,2.246381113E0
2.763143270E-1,2.233120203E0,4.338588715E-1,1.818941116E0,2.912663068E0
2.810564100E-1,2.631205797E0,8.993268013E-1,2.042711258E0,3.450319105E0
2.857984930E-1,2.958660126E0,1.223188400E0,2.032754898E0,3.792354424E0
2.905405770E-1,3.183434725E0,1.396953106E0,1.971584320E0,3.996608482E0
2.952827120E-1,3.278838396E0,1.423471451E0,2.108913422E0,4.150249151E0
3.000247960E-1,3.222070932E0,1.352139473E0,2.448600292E0,4.266809773E0
3.047668790E-1,2.911137819E0,1.188967228E0,2.867899418E0,4.255962117E0
3.095089620E-1,2.370127916E0,9.607536793E-1,3.229906559E0,4.119811932E0
3.142510980E-1,1.723029137E0,6.915757656E-1,3.427973747E0,3.898475402E0
3.189931810E-1,1.147712708E0,4.146175385E-1,3.509840488E0,3.715929549E0
3.237352640E-1,7.956763506E-1,1.272842884E-1,3.588174343E0,3.677539566E0
3.284773480E-1,5.291644335E-1,-1.165990829E-1,3.684416771E0,3.724048507E0
3.332194830E-1,3.183175325E-1,-1.770200729E-1,3.751311302E0,3.768951929E0
3.379615660E-1,2.584652901E-1,-1.538660526E-1,3.735189438E0,3.747281575E0
3.427036500E-1,4.177420139E-1,-6.732821465E-2,3.632541180E0,3.657102255E0
3.474457330E-1,7.536891699E-1,3.954553604E-2,3.604882240E0,3.683040480E0
3.521878160E-1,1.221928835E0,1.784958839E-1,3.627408028E0,3.831848099E0
3.569299520E-1,1.709246159E0,4.992635250E-1,4.109604836E0,4.478798768E0
3.616720350E-1,2.431540489E0,9.314227104E-1,5.408879280E0,6.002991961E0
3.664141180E-1,3.143024206E0,1.305284262E0,6.642346382E0,7.463453197E0
3.711562020E-1,3.463412046E0,1.542294502E0,7.352319717E0,8.272272999E0
3.758983370E-1,3.428350449E0,1.700126410E0,7.676431656E0,8.577390021E0
3.806404210E-1,2.569450378E0,1.964016438E0,6.098622322E0,6.903088442E0
3.853825040E-1,1.577743649E0,1.948489428E0,2.748598099E0,3.720306114E0
3.901245870E-1,5.265080929E-1,1.747018576E0,-7.328529358E-1,1.966305699E0
3.948666710E-1,-2.962975979E0,1.161649466E0,-2.703035355E0,4.175530656E0
3.996087540E-1,-8.945224762E0,-6.255552769E-1,-9.924373627E-1,9.021823395E0
4.043508890E-1,-7.143698692E0,-1.462377310E0,-2.831648827E0,7.822353449E0
4.090929730E-1,-1.022439384E1,-2.015590429E0,-3.278527260E0,1.092472312E1
4.138350560E-1,-1.203870678E1,-2.330014706E0,-2.258125782E0,1.246830227E1
4.185771390E-1,-1.071990585E1,-1.991795063E0,-6.644434929E-1,1.092360354E1
4.233192230E-1,-6.383190155E0,-1.335095167E0,1.508797646E0,6.693583943E0
4.280613060E-1,-1.599967718E0,-2.612125874E-1,2.879810333E0,3.304759639E0
4.328034410E-1,1.364413142E0,8.709547520E-1,2.819650650E0,3.251248251E0
4.375455250E-1,4.777526855E-1,2.603882074E0,5.677051544E-1,2.707533680E0
4.422876080E-1,6.517183781E-1,3.295994282E0,-5.001621246E-1,3.396833423E0
4.470296910E-1,4.219508171E-1,3.056904554E0,-5.330038071E-1,3.131581231E0
4.517717750E-1,-3.549759388E-1,2.603916645E0,-1.774400234E0,3.170944024E0
4.565138580E-1,-9.931004047E-1,2.132494450E0,-2.875678539E0,3.715280346E0
4.612559930E-1,-1.207807302E0,1.809307098E0,-3.094450951E0,3.782593996E0
4.659980770E-1,-9.551479816E-1,1.737727165E0,-2.724784374E0,3.369933717E0
4.707401600E-1,-6.197581291E-1,1.818495274E0,-2.179297447E0,2.905230208E0
4.754822430E-1,-5.501575470E-1,2.038036346E0,-1.911044121E0,2.847517359E0
4.802243270E-1,-5.137145519E-1,2.285600424E0,-1.743822098E0,2.920408781E0
4.849664620E-1,-3.247497082E-1,2.477444410E0,-1.816349030E0,3.089064094E0
4.897085460E-1,2.704362869E-1,2.504617214E0,-1.699466228E0,3.038820271E0
4.944506290E-1,9.892116785E-1,2.280278683E0,-1.332654953E0,2.820315557E0
4.991927120E-1,1.028267980E0,1.774486303E0,-6.959075928E-1,2.165738686E0
5.039347960E-1,4.181842804E-1,9.099597931E-1,-1.747350693E-1,1.016581163E0
5.086768790E-1,-2.424550056E-1,5.980181694E-2,2.190227509E-1,3.321620876E-1
5.134189620E-1,-1.179389358E0,-3.940203190E-1,1.011975288E0,1.603217157E0
5.181610460E-1,-1.711818814E0,-7.474117279E-1,2.245121002E0,2.920533557E0
5.229031810E-1,-1.817682981E0,-1.007827044E0,4.171058655E0,4.660194961E0
5.276452640E-1,-1.626777768E0,-1.285966158E0,5.517257690E0,5.894085789E0
5.323873480E-1,-1.107804537E0,-1.563998461E0,5.632977486E0,5.950105666E0
5.371294310E-1,-4.643362761E-1,-1.817857862E0,4.998494148E0,5.339022301E0
5.418715140E-1,1.850795746E-1,-1.943054199E0,3.998813629E0,4.449744320E0
5.466135980E-1,9.168387055E-1,-2.014517546E0,3.041520119E0,3.761611196E0
5.513556810E-1,1.431272268E0,-2.114131689E0,2.571310043E0,3.623496715E0
5.560978160E-1,1.289323330E0,-2.669127941E0,3.380195618E0,4.495811498E0
5.608399000E-1,8.243866563E-1,-2.981790304E0,3.309080124E0,4.529977709E0
5.655819830E-1,3.803701401E-1,-3.096692562E0,2.275337219E0,3.861521168E0
5.703240660E-1,1.307131052E-1,-3.328927994E0,1.919710159E0,3.845014252E0
5.750661500E-1,-2.787197828E-1,-3.564317226E0,2.020532608E0,4.106652411E0
5.798082330E-1,-9.154065847E-1,-3.701465607E0,2.393995285E0,4.502225036E0
5.845503160E-1,-1.621273994E0,-3.627582788E0,2.758100510E0,4.836838293E0
5.892924000E-1,-2.045622826E0,-3.327889919E0,2.942358017E0,4.890490237E0
5.940344830E-1,-2.129697561E0,-2.946083069E0,3.086091995E0,4.768540757E0
5.987765660E-1,-2.054617643E0,-2.747674942E0,2.211428642E0,4.081860836E0
6.035187020E-1,-2.174462795E0,-2.859078169E0,1.743968964E0,3.992999395E0
6.082607850E-1,-1.896899581E0,-2.783880949E0,2.561740875E0,4.232107923E0
6.130028680E-1,-1.216380000E0,-2.853623867E0,3.261685371E0,4.501259928E0
6.177449520E-1,-3.645720482E-1,-2.819801092E0,3.050137520E0,4.169835712E0
6.224870350E-1,-4.276962280E-1,-3.600972652E0,2.635291100E0,4.482709815E0
6.272291180E-1,-2.366905212E-1,-4.561898708E0,1.614643097E0,4.844998922E0
6.319712020E-1,2.271905541E-1,-5.069365978E0,2.243852615E-1,5.079412930E0
6.367132850E-1,5.574424267E-1,-5.228744984E0,-7.957577705E-1,5.318246571E0
6.414553680E-1,8.049713969E-1,-5.118612766E0,-1.809460640E0,5.488380764E0
6.461974520E-1,1.234135628E0,-4.592334747E0,-3.214984417E0,5.740100520E0
6.509395350E-1,1.927475691E0,-2.821352959E0,-8.617696762E0,9.270377152E0
6.556816710E-1,3.509462595E0,1.210531235E0,-1.459378242E1,1.505855900E1
6.604237020E-1,3.394682407E0,1.668014050E0,-7.665081501E0,8.547491675E0
6.651658370E-1,2.041885376E0,2.281726837E0,-3.911553860E0,4.967476909E0
6.699079210E-1,-1.472412944E-1,2.180592537E0,-4.399104118E0,4.912105542E0
6.746500040E-1,-2.091287613E0,1.008286476E0,-4.800986767E0,5.332879094E0
6.793920870E-1,-2.733939886E0,2.733898163E-2,-4.085017681E0,4.915541087E0
6.841341710E-1,-2.645485640E0,-3.132195473E-1,-3.463671684E0,4.369636403E0
6.888762540E-1,-2.698892593E0,9.025764465E-2,-3.719868422E0,4.596693240E0
6.936183370E-1,-2.862892628E0,4.433922768E-1,-3.673391104E0,4.678306650E0
6.983604210E-1,-2.930158138E0,5.781126022E-1,-3.062740326E0,4.277898924E0
7.031025040E-1,-2.777315855E0,5.823431015E-1,-2.584085464E0,3.837981831E0
7.078445870E-1,-2.484720707E0,2.985749245E-1,-2.412942886E0,3.476388550E0
7.125866710E-1,-2.366753101E0,-1.737947464E-1,-2.240335941E0,3.263560937E0
7.173287540E-1,-2.425678730E0,-5.848951340E-1,-2.119996071E0,3.274202645E0
7.220708370E-1,-2.565623045E0,-8.375043869E-1,-1.462172031E0,3.069492182E0
7.268129210E-1,-2.634200335E0,-6.566257477E-1,-6.702628136E-1,2.796322766E0
7.315550560E-1,-3.183508158E0,3.576846123E-1,1.142641068E0,3.401219058E0
7.362971390E-1,-3.066653728E0,6.490731239E-1,3.824090958E-1,3.157831175E0
7.410392230E-1,-3.027170658E0,6.470813751E-1,4.695701599E-2,3.095913671E0
7.457813060E-1,-2.657369852E0,8.615913391E-1,1.629538536E-1,2.798304509E0
7.505233890E-1,-2.489022017E0,1.352796555E0,3.329319954E-1,2.852390722E0
7.552654730E-1,-2.632086515E0,2.062402248E0,1.062917709E-1,3.345546353E0
7.600075560E-1,-2.918219090E0,2.252495289E0,-3.467583656E-1,3.702698887E0
7.647496390E-1,-2.993019819E0,1.635355473E0,-9.360542297E-1,3.536771505E0
7.694917230E-1,-2.650429726E0,6.297678947E-1,-1.479547501E0,3.100071957E0
7.742338060E-1,-1.985096931E0,-1.578221321E-1,-1.817665100E0,2.696186950E0
7.789758890E-1,-1.535535336E0,-3.893985748E-1,-2.036335468E0,2.579953906E0
7.837179730E-1,-4.603375793E-1,-8.912410736E-1,-1.625162125E0,1.909809747E0
7.884600560E-1,4.054140747E-1,-1.443051338E0,-8.492684364E-1,1.722792679E0
7.932021390E-1,9.225679040E-1,-1.661678314E0,-4.027318954E-1,1.942807077E0
7.979442230E-1,1.286809206E0,-1.609097481E0,-2.210574150E-1,2.072182187E0
8.026863060E-1,1.479830742E0,-1.249464035E0,-1.568622589E-1,1.943107091E0
8.074283890E-1,1.759369612E0,-6.063475609E-1,-1.496119499E-1,1.866928636E0
8.121704730E-1,1.417697906E0,1.208786964E-1,-8.078298569E-1,1.636174835E0
8.169125560E-1,2.071264505E0,4.119381905E-1,-3.297939301E-1,2.137426902E0
8.216546390E-1,2.577587843E0,4.678010941E-1,7.274131775E-1,2.718809828E0
8.263967230E-1,2.627705097E0,1.005363464E-1,1.531516552E0,3.043104432E0
8.311388060E-1,2.064373970E0,-4.451804161E-1,1.923067570E0,2.856223795E0
8.358808890E-1,1.211918354E0,-9.990358353E-1,2.068595886E0,2.597288516E0
8.406229730E-1,2.739437222E-1,-1.550774097E0,2.121288776E0,2.641933295E0
8.453650560E-1,-9.441066384E-1,-2.387475491E0,2.373589039E0,3.496469861E0
8.501071390E-1,-1.640306592E0,-2.531264782E0,2.771264076E0,4.096072716E0
8.548492230E-1,-2.065945387E0,-2.608048439E0,3.406448364E0,4.761715811E0
8.595913060E-1,-2.248207569E0,-2.404028893E0,3.798843384E0,5.026430467E0
8.643333890E-1,-2.416221380E0,-2.224949837E0,3.699060917E0,4.946875701E0
8.690754730E-1,-2.727794647E0,-1.960656166E0,3.337786674E0,4.735594590E0
8.738175560E-1,-2.726220846E0,-1.759098530E0,2.994874477E0,4.415425333E0
8.785596390E-1,-2.559659481E0,-1.655525208E0,2.498792171E0,3.941647205E0
8.833017230E-1,-2.413753033E0,-1.644164085E0,1.835843086E0,3.449608540E0
8.880438060E-1,-2.021998644E0,-1.483691692E0,1.218453884E0,2.788269969E0
8.927858890E-1,-1.432812214E0,-1.362562656E0,5.434036255E-1,2.050564638E0
8.975279210E-1,-5.189014673E-1,-1.285265923E0,-1.176147461E-1,1.391042937E0
9.022700560E-1,3.823236227E-1,-1.349613190E0,-3.738298416E-1,1.451680359E0
9.070120870E-1,1.090739608E0,-1.272074223E0,-4.889926910E-1,1.745565688E0
9.117542230E-1,1.358111858E0,-1.146241188E0,-6.760301590E-1,1.901408283E0
9.164962540E-1,9.748307467E-1,-9.244747162E-1,-9.277300835E-1,1.632676206E0
9.212383370E-1,7.425612211E-1,-9.397358894E-1,-1.741851807E0,2.113894138E0
9.259804210E-1,8.375581503E-1,-1.227631569E0,-2.913761616E0,3.270869866E0
9.307225040E-1,8.914034367E-1,-1.390594482E0,-3.527955055E0,3.895487129E0
9.354645870E-1,5.474417210E-1,-1.400492191E0,-3.613889694E0,3.914239331E0
9.402066710E-1,-1.332862377E-1,-1.424843311E0,-3.514656782E0,3.794832800E0
9.449487540E-1,-7.666919231E-1,-1.606412411E0,-3.402312517E0,3.839805699E0
9.496908370E-1,-1.211116433E0,-1.848963737E0,-3.424269915E0,4.075671033E0
9.544329210E-1,-1.487228870E0,-2.042677402E0,-3.319807529E0,4.171990258E0
9.591750040E-1,-1.698922753E0,-2.207110405E0,-3.134180784E0,4.192942171E0
9.639170870E-1,-1.973156929E0,-2.416706562E0,-2.662182331E0,4.101345345E0
9.686591710E-1,-2.290522099E0,-2.624259472E0,-1.897303104E0,3.966483119E0
9.734012540E-1,-2.450099230E0,-2.859182596E0,-1.033228874E0,3.904545205E0
9.781433370E-1,-2.155827522E0,-3.155880213E0,-1.698403358E-1,3.825704898E0
9.828854210E-1,-1.601627231E0,-3.338681221E0,4.050621986E-1,3.725060733E0
9.876275040E-1,-1.107256770E0,-3.458799124E0,6.837091446E-1,3.695506343E0
9.923695350E-1,-7.436683178E-1,-3.459709167E0,7.654614449E-1,3.620574722E0
9.971116710E-1,-4.292588234E-1,-3.306392193E0,6.418733597E-1,3.395363586E0
1.001853702E0,-1.730828285E-1,-3.056598902E0,3.327450752E-1,3.079524930E0
1.006595785E0,-5.064988136E-2,-2.805520058E0,-1.592993736E-1,2.810495418E0
1.011337868E0,-4.428625107E-2,-2.604537725E0,-7.557201385E-1,2.712322061E0
1.016079952E0,-2.951312065E-2,-2.509400845E0,-1.378298759E0,2.863157539E0
1.020822035E0,-1.197576523E-3,-2.209274769E0,-1.641580105E0,2.752395625E0
1.025564118E0,4.175646305E-1,-2.186057568E0,-1.921840668E0,2.940523671E0
1.030306202E0,1.128611565E0,-2.137286901E0,-2.747983932E0,3.659668709E0
1.035048285E0,1.891741753E0,-1.971973419E0,-3.390663385E0,4.354763394E0
1.039790368E0,2.605341673E0,-1.576151848E0,-3.498611689E0,4.638140104E0
1.044532452E0,3.111524343E0,-1.069807291E0,-3.406358242E0,4.735963244E0
1.049274483E0,3.391071320E0,-6.795465946E-1,-3.277583838E0,4.764840405E0
1.054016566E0,3.538349628E0,-4.432926178E-1,-2.883572102E0,4.586002017E0
1.058758650E0,3.673246384E0,-3.899011612E-1,-2.296405792E0,4.349510487E0
1.063500733E0,3.634154320E0,-4.579491615E-1,-1.428121567E0,3.931453454E0
1.068242816E0,3.355915070E0,-6.788847446E-1,-4.514045715E-1,3.453522338E0
1.072984900E0,2.950061798E0,-1.000386000E0,5.069236755E-1,3.156043151E0
1.077726983E0,1.979890347E0,-1.222023249E0,2.193898678E0,3.197889619E0
1.082469066E0,-2.380811214E0,6.722974777E-2,1.012282944E1,1.039925275E1
1.087211150E0,-3.889970303E0,-3.263174534E0,1.103404427E1,1.214620557E1
1.091953181E0,-5.734882355E0,-5.493432999E0,1.071727943E1,1.333891900E1
1.096695264E0,-4.908030987E0,-5.819338799E0,6.734110832E0,1.016374542E1
1.101437348E0,-4.688168526E0,-4.241131783E0,5.639833927E0,8.471944856E0
1.106179431E0,-3.707439661E0,-3.773694038E0,4.856673717E0,7.181445198E0
1.110921514E0,-9.539387226E-1,-3.900960445E0,2.109318256E0,4.536156412E0
1.115663598E0,2.368716717E0,-3.580350876E0,-9.972443581E-1,4.407292546E0
1.120405681E0,3.975021839E0,-2.240330935E0,-1.610870838E0,4.838882740E0
1.125147764E0,4.456084728E0,-1.565004110E0,-1.357981682E0,4.914269347E0
1.129889796E0,4.932734966E0,-1.773693919E0,-1.781068802E0,5.536250576E0
1.134631879E0,5.514560223E0,-2.062916279E0,-2.640362263E0,6.452713453E0
1.139373962E0,6.014776230E0,-2.006364822E0,-3.273997307E0,7.135971641E0
1.144116046E0,6.294324398E0,-1.819524169E0,-3.314221859E0,7.342564563E0
1.148858129E0,6.505524158E0,-1.519485831E0,-3.205154419E0,7.409702870E0
1.153600212E0,6.664290428E0,-1.221239567E0,-2.936079979E0,7.384088206E0
1.158342243E0,6.713245392E0,-1.153982162E0,-2.403672218E0,7.223363389E0
1.163084327E0,6.550912857E0,-1.305564165E0,-1.674773216E0,6.886495653E0
1.167826410E0,6.893303871E0,-1.215426922E0,1.381419182E0,7.134649243E0
1.172568493E0,5.076991081E0,-1.739981413E0,4.512230873E0,7.011676063E0
1.177310577E0,3.265682697E0,-1.742985725E0,8.003593445E0,8.818173890E0
1.182052660E0,2.133580685E0,-2.397029400E0,7.622735023E0,8.270671419E0
1.186794743E0,3.377807140E0,-2.413258791E0,6.630821228E0,7.823118894E0
1.191536775E0,4.017772198E0,-1.848915100E0,7.383622169E0,8.606907506E0
1.196278858E0,4.970139503E0,-8.218815327E-1,1.019417000E1,1.137096644E1
1.201020941E0,4.828470707E0,-4.154362977E-1,1.162115383E1,1.259118474E1
1.205763025E0,3.840350151E0,-8.528404832E-1,1.173095322E1,1.237299032E1
1.210505108E0,3.618298531E0,-1.019145727E0,1.128003788E1,1.188991156E1
1.215247191E0,3.693999767E0,-7.060697079E-1,1.151660156E1,1.211512609E1
1.219989223E0,3.543201923E0,-2.338368893E-1,1.088119984E1,1.144593681E1
1.224731306E0,2.730786324E0,-7.300984859E-2,1.135398197E1,1.167798917E1
1.229473389E0,2.163519382E0,-4.161668122E-1,9.827963829E0,1.007188582E1
1.234215473E0,1.334588528E0,-4.299069941E-1,8.892264366E0,9.002128199E0
1.238957556E0,4.320337772E-1,-5.716515183E-1,7.415724754E0,7.450262564E0
1.243699639E0,5.117239952E-1,-8.155201674E-1,4.937626839E0,5.030615607E0
1.248441671E0,8.555264473E-1,-7.879158258E-1,3.212370872E0,3.416440176E0
1.253183754E0,8.777670860E-1,-7.335587740E-1,1.740729332E0,2.082959947E0
1.257925837E0,2.023783922E0,-3.526712060E-1,-4.225330353E-1,2.097286940E0
1.262667921E0,3.202893734E0,3.953862190E-2,-1.723948002E0,3.637593750E0
1.267410004E0,3.706663847E0,-1.566147804E-2,-2.653211594E0,4.558413531E0
1.272152035E0,3.917701960E0,-2.308334708E-1,-3.366032124E0,5.170284808E0
1.276894118E0,4.059165001E0,-4.756525159E-1,-3.654694557E0,5.482687126E0
1.281636202E0,4.152197838E0,-4.966781735E-1,-3.757856369E0,5.622181123E0
1.286378285E0,4.237503052E0,-2.515118122E-1,-4.034059048E0,5.856050094E0
1.291120316E0,4.136072636E0,-2.292668819E-2,-4.177301884E0,5.878560496E0
1.295862400E0,3.811768055E0,7.465124130E-3,-4.259140491E0,5.715759718E0
1.300604483E0,3.144639969E0,-2.018597126E-1,-4.055789948E0,5.136043222E0
1.305346566E0,1.777605534E0,-6.047250628E-1,-1.839086533E0,2.628271886E0
1.310088650E0,8.379745483E-1,-1.530687571E0,-4.262924194E-1,1.796366057E0
1.314830681E0,-3.826038837E-1,-3.233564377E0,-5.166873932E-1,3.296860654E0
1.319572764E0,-2.301822662E0,-5.656715393E0,-1.115684509E-1,6.108130985E0
1.324314848E0,-4.421612740E0,-7.580194473E0,1.238137245E0,8.862448381E0
1.329056931E0,-4.564994812E0,-7.286300182E0,5.525569916E-1,8.615954225E0
1.333799014E0,-4.118188858E0,-6.053645611E0,3.688964844E-1,7.330906442E0
1.338541046E0,-3.946544647E0,-5.053425312E0,-1.808738708E-1,6.414439757E0
1.343283129E0,-3.285639286E0,-4.236791134E0,-1.042076111E0,5.461844675E0
1.348025212E0,-2.136501551E0,-3.362173557E0,-9.483194351E-1,4.094894340E0
1.352767296E0,-1.131201982E0,-2.757399082E0,-1.320965767E0,3.260033463E0
1.357509327E0,4.195716381E-1,-2.337432623E0,-1.124877930E0,2.627733240E0
1.362251410E0,1.918256998E0,-1.802612066E0,1.037426949E0,2.829377113E0
1.366993493E0,3.085160494E0,-1.539307117E0,1.030949593E0,3.598685696E0
1.371735577E0,3.743259192E0,-1.161536813E0,-9.192323685E-1,4.025685692E0
1.376477608E0,4.984123707E0,-2.799065113E-1,-8.468399048E-1,5.063296812E0
1.381219691E0,5.541175842E0,2.370834351E-2,6.738758087E-1,5.582051631E0
1.385961775E0,5.533142567E0,-3.899748921E-1,1.449573517E0,5.733150134E0
1.390703858E0,5.240901947E0,-6.426354647E-1,1.783611298E0,5.573266800E0
1.395445889E0,4.648139477E0,-4.177970290E-1,1.735171318E0,4.979013402E0
1.400187973E0,2.219278336E0,-1.396732330E-1,1.634068489E0,2.759508067E0
1.404930056E0,-1.137747288E0,-4.524099827E-2,5.453882217E-1,1.262522852E0
1.409672139E0,-4.758584023E0,-1.946833134E-1,-7.546930313E-1,4.821989741E0
1.414414171E0,-8.131853104E0,-3.296990395E-1,-2.728429794E0,8.583709309E0
1.419156254E0,-1.138512993E1,-3.960545063E-1,-3.249605179E0,1.184643307E1
1.423898337E0,-1.485219288E1,-1.128249645E0,-3.034301281E0,1.520090671E1
1.428640421E0,-1.585139751E1,-8.836611509E-1,-3.216227055E0,1.619851156E1
1.433382452E0,-1.451048565E1,-3.140044212E-1,-3.197764874E0,1.486198145E1
1.438124535E0,-1.150741196E1,2.030336857E-1,-3.787360191E0,1.211634639E1
1.442866618E0,-7.912611485E0,9.411302805E-1,-5.031445980E0,9.423937360E0
1.447608650E0,-4.484599113E0,1.787593126E0,-6.433954716E0,8.043810768E0
1.452350733E0,-2.056657791E0,2.567126751E0,-7.208495140E0,7.923533505E0
1.457092816E0,-7.247781754E-2,3.754856586E0,-7.180829525E0,8.103611151E0
1.461834900E0,9.083337784E-1,5.052173615E0,-6.822319031E0,8.537772862E0
1.466576931E0,1.670511723E0,5.766389847E0,-7.287824631E0,9.442152780E0
1.471319014E0,3.054844379E0,5.969274521E0,-8.218292236E0,1.060682044E1
1.476061098E0,4.673613071E0,5.899330616E0,-8.239744186E0,1.115966599E1
1.480803129E0,5.937188148E0,5.490397453E0,-8.583579063E0,1.179290027E1
1.485545212E0,6.574496269E0,4.820931435E0,-8.773925781E0,1.197694263E1
1.490287296E0,6.561220169E0,3.800401211E0,-8.661934853E0,1.151181023E1
1.495029379E0,6.073518276E0,2.727301121E0,-8.105081558E0,1.048895337E1
1.499771410E0,5.233686447E0,1.992814541E0,-6.764114857E0,8.781573516E0
1.504513493E0,4.302653313E0,1.484270692E0,-5.033215523E0,6.785951924E0
1.509255577E0,3.244740248E0,1.085215807E0,-3.655643463E0,5.006971315E0
1.513997608E0,2.429184675E0,8.454152346E-1,-2.382885933E0,3.506253053E0
1.518739691E0,2.243313074E0,1.304332614E0,-2.174854279E-2,2.595035667E0
1.523481775E0,2.243147135E0,2.593421459E0,4.032183647E0,5.293018883E0
1.528223806E0,-3.609535694E-1,2.416055202E0,1.806693077E0,3.038379518E0
1.532965889E0,-2.750649929E0,2.209743261E0,1.231145859E0,3.736945335E0
1.537707973E0,-4.370850563E0,1.942699313E0,1.485380173E0,5.008469779E0
1.542450004E0,-5.520930290E0,1.660714507E0,8.813877106E-1,5.832279849E0
1.547192087E0,-5.814940453E0,1.590757251E0,4.692745209E-2,6.028784561E0
1.551934171E0,-5.836769581E0,1.486297250E0,-6.585922241E-1,6.058935746E0
1.556676202E0,-6.106925488E0,1.294797897E0,-1.086636543E0,6.336546337E0
1.561418285E0,-6.341653824E0,1.047791839E0,-9.113850594E-1,6.491922957E0
1.566160368E0,-6.413610458E0,6.454901695E-1,-2.144861221E-1,6.449578356E0
1.570902452E0,-6.100913048E0,2.838569880E-1,1.984338760E-1,6.110735701E0
1.575644483E0,-5.742233276E0,2.174265385E-1,5.106649399E-1,5.768994365E0
1.580386566E0,-5.066993713E0,9.753324986E-1,-3.373126984E-1,5.171022977E0
1.585128650E0,-3.774053574E0,2.274206400E0,-4.564315796E0,6.344168489E0
1.589870681E0,-5.355596542E0,2.101550341E0,-1.535094261E0,5.954447292E0
1.594612764E0,-6.334004402E0,2.228870392E0,-1.432310104E0,6.865783803E0
1.599354796E0,-6.043968201E0,2.399821520E0,-2.960982800E0,7.145356120E0
1.604096879E0,-5.386826515E0,2.290293455E0,-4.253930092E0,7.235970235E0
1.608838962E0,-5.035031319E0,2.392986536E0,-5.152093887E0,7.590915384E0
1.613580993E0,-4.164235115E0,2.958731174E0,-4.965372086E0,7.123893893E0
1.618323077E0,-3.370035648E0,3.718659639E0,-4.471081734E0,6.721319934E0
1.623065160E0,-2.686215401E0,4.426435471E0,-4.076358795E0,6.589824366E0
1.627807191E0,-1.950730085E0,5.044074059E0,-3.731279612E0,6.570424531E0
1.632549275E0,-9.876520634E-1,5.524009705E0,-3.254844189E0,6.487229802E0
1.637291358E0,-4.358720779E-2,5.825641155E0,-2.676865578E0,6.411365224E0
1.642033389E0,6.546702385E-1,5.936844826E0,-1.883860111E0,6.262878613E0
1.646775473E0,1.129072189E0,5.800143242E0,-9.895129204E-1,5.991293805E0
1.651517556E0,1.246422291E0,5.380039692E0,1.811985970E-1,5.525507085E0
1.656259587E0,7.631368637E-1,4.624752045E0,1.712277412E0,4.990250824E0
1.661001671E0,-4.120187759E-1,3.601934433E0,3.571157455E0,5.088895431E0
1.665743754E0,-2.060265064E0,2.583664417E0,5.862254620E0,6.729490559E0
1.670485785E0,-3.848798513E0,1.689713955E0,8.781242371E0,9.735430181E0
1.675227868E0,-5.299805641E0,1.050425053E0,1.221839809E1,1.335966259E1
1.679969900E0,-5.827828407E0,8.552594185E-1,1.535450172E1,1.644553969E1
1.684711983E0,-5.385164261E0,1.150812149E0,1.727114487E1,1.812779103E1
1.689454014E0,-4.282228947E0,1.703670025E0,1.762170982E1,1.821440730E1
1.694196098E0,-3.015660524E0,2.340363503E0,1.656574440E1,1.699986462E1
1.698938181E0,-1.793770790E0,2.889375210E0,1.465886497E1,1.504820338E1
1.703680212E0,-8.524975777E-1,3.190201759E0,1.244608498E1,1.287669098E1
1.708422296E0,-2.920622826E-1,3.105000973E0,1.031068802E1,1.077202947E1
1.713164379E0,-7.632970810E-2,2.847019196E0,8.412449837E0,8.881478299E0
1.717906410E0,1.562428474E-1,2.584947109E0,6.895989895E0,7.366209338E0
1.722648493E0,5.660128593E-1,2.447296619E0,5.901665688E0,6.413991674E0
1.727390577E0,1.212620735E0,2.491492748E0,5.931445122E0,6.546756937E0
1.732132608E0,1.583985329E0,2.520207882E0,7.708275795E0,8.263048652E0
1.736874691E0,1.604203701E0,2.324269295E0,9.177301407E0,9.602008039E0
1.741616723E0,1.664431572E0,1.878637314E0,1.099845409E1,1.128120575E1
1.746358806E0,1.748920918E0,1.458810329E0,1.274193764E1,1.294387217E1
1.751100889E0,2.175644398E0,1.138312817E0,1.345577812E1,1.367798046E1
1.755842921E0,3.597136497E0,1.892477512E0,1.412405205E1,1.469726874E1
1.760585004E0,3.785644531E0,1.149057388E0,1.392149162E1,1.447271109E1
1.765327035E0,3.047326088E0,-3.004932404E-1,1.361519623E1,1.395528792E1
1.770069118E0,2.218284607E0,-1.741093159E0,1.295236492E1,1.325578927E1
1.774811150E0,1.711307526E0,-2.785444975E0,1.224654770E1,1.267537801E1
1.779553233E0,1.432449341E0,-3.637318134E0,1.151183987E1,1.215748541E1
1.784295316E0,1.182481289E0,-4.432841301E0,1.085327625E1,1.178312138E1
1.789037348E0,9.837274551E-1,-5.107193947E0,1.008296585E1,1.134536690E1
1.793779431E0,9.707984924E-1,-5.693935394E0,9.340873718E0,1.098249843E1
1.798521462E0,1.072915077E0,-6.141164780E0,8.621339798E0,1.063919882E1
1.803263546E0,1.218105793E0,-6.493009567E0,8.016092300E0,1.038752573E1
1.808005577E0,1.417468548E0,-6.943979263E0,7.665277958E0,1.043956662E1
1.812747660E0,1.758278370E0,-7.179893017E0,7.664232254E0,1.064813893E1
1.817489743E0,2.311917305E0,-6.859596729E0,7.926722527E0,1.073461499E1
1.822231775E0,2.968658447E0,-6.058691502E0,7.989277363E0,1.045701814E1
1.826973858E0,3.530922413E0,-5.060292244E0,7.646992207E0,9.826009388E0
1.831715889E0,3.881869316E0,-3.993064165E0,6.831342697E0,8.813666312E0
1.836457973E0,4.031109810E0,-3.036853313E0,5.568676472E0,7.515482818E0
1.841200004E0,3.942410946E0,-2.265245676E0,4.104494572E0,6.125423882E0
1.845942087E0,3.786908150E0,-1.555573940E0,2.583431244E0,4.840929726E0
1.850684118E0,3.417794228E0,-1.193329811E0,1.163465023E0,3.802499741E0
1.855426202E0,2.927182674E0,-1.338430405E0,-8.669757843E-2,3.219830869E0
1.860168233E0,2.539477825E0,-1.594038963E0,-1.412912846E0,3.314548318E0
1.864910316E0,2.159963131E0,-1.750963688E0,-2.770632505E0,3.925266748E0
1.869652400E0,1.815947533E0,-1.861196518E0,-3.862193823E0,4.655991736E0
1.874394431E0,1.732094288E0,-1.874242306E0,-4.617650032E0,5.275947940E0
1.879136514E0,2.948583603E0,-4.647498131E-1,-4.609133244E0,5.491288274E0
1.883878546E0,3.223066807E0,-2.240753174E-1,-5.037231445E0,5.984318677E0
1.888620629E0,2.748744011E0,-6.965136528E-1,-5.117352486E0,5.850471893E0
1.893362660E0,1.809204578E0,-1.487502098E0,-5.275122643E0,5.771724404E0
1.898104743E0,9.687411785E-1,-2.099439621E0,-5.197508335E0,5.688602560E0
1.902846775E0,3.280532360E-1,-2.358529329E0,-4.971543312E0,5.512397158E0
1.907588858E0,-3.196213245E-1,-2.313515425E0,-4.668742180E0,5.220312726E0
1.912330889E0,-8.104548454E-1,-2.144763947E0,-4.099724770E0,4.697296311E0
1.917072973E0,-6.245176792E-1,-2.038759470E0,-3.499480963E0,4.097917705E0
1.921815004E0,-1.089441776E-1,-1.986999035E0,-2.692053795E0,3.347713792E0
1.926557087E0,4.996352196E-1,-1.882614136E0,-1.594324589E0,2.517090032E0
1.931299171E0,6.306502819E-1,-2.164441109E0,2.808895111E-1,2.271876759E0
1.936041202E0,-5.199909210E-3,-2.791421175E0,2.246451855E0,3.583099936E0
1.940783285E0,-2.668712139E-1,-3.487687588E0,2.918267250E0,4.555377997E0
1.945525316E0,5.304877758E-1,-3.643356085E0,2.485771656E0,4.442355408E0
1.950267400E0,2.455567122E0,-2.979260445E0,1.410388947E0,4.110352742E0
1.955009431E0,5.291581154E0,-1.623522758E0,-4.301424026E-1,5.551727636E0
1.959751462E0,7.347707748E0,-2.117667198E-1,-2.949770689E0,7.920530375E0
1.964493546E0,7.896586418E0,1.202815056E0,-5.732769012E0,9.831962249E0
1.969235629E0,7.668446541E0,2.895585537E0,-8.306756973E0,1.167011994E1
1.973977660E0,7.260708809E0,4.631834030E0,-1.036513710E1,1.347619553E1
1.978719743E0,6.969737053E0,6.061754704E0,-1.188157558E1,1.504971571E1
1.983461775E0,6.702317238E0,7.014468193E0,-1.282215309E1,1.607891260E1
1.988203858E0,6.544052124E0,7.614807129E0,-1.315444374E1,1.654839255E1
1.992945889E0,6.446278572E0,7.833717823E0,-1.307690620E1,1.655074374E1
1.997687973E0,6.207695961E0,7.729589462E0,-1.239962864E1,1.587554197E1
2.002430004E0,5.991150856E0,7.510098934E0,-1.124524117E1,1.479023068E1
2.007172087E0,5.705696106E0,7.224275589E0,-9.646905899E0,1.333446359E1
2.011914118E0,5.396603584E0,6.628649235E0,-7.533811092E0,1.139388566E1
2.016656202E0,5.221196175E0,5.878711700E0,-5.090291977E0,9.366494177E0
2.021398233E0,4.828114510E0,5.147050858E0,-2.797388554E0,7.591324322E0
2.026140264E0,4.306502342E0,4.675919533E0,-7.609777451E-1,6.402286547E0
2.030882348E0,3.597502708E0,4.361083031E0,9.891529083E-1,5.739293895E0
2.035624379E0,2.864457369E0,4.320951939E0,2.477961063E0,5.745957945E0
2.040366462E0,2.196884871E0,4.544746876E0,3.768157959E0,6.299209609E0
2.045108493E0,1.877601147E0,4.643892288E0,4.841509342E0,6.966443451E0
2.049850577E0,2.239350080E0,4.927476883E0,5.668300152E0,7.837368425E0
2.054592608E0,2.813781261E0,5.561600208E0,6.160672665E0,8.763712087E0
2.059334691E0,3.321932077E0,6.405434608E0,5.926428318E0,9.337418158E0
2.064076723E0,3.793751240E0,6.951387882E0,5.342694283E0,9.552943220E0
2.068818806E0,3.974215031E0,6.989751816E0,4.334214211E0,9.134354295E0
2.073560837E0,3.875612736E0,6.791300297E0,3.335192204E0,8.500919999E0
2.078302921E0,3.415581703E0,6.349014282E0,2.230265617E0,7.546539966E0
2.083044952E0,3.065534353E0,5.826616764E0,1.342789173E0,6.719378435E0
2.087787035E0,2.725180387E0,5.143496037E0,3.696651459E-1,5.832564783E0
2.092529066E0,2.515239000E0,4.134434223E0,-1.478056908E-1,4.841675340E0
2.097271150E0,2.087516785E0,2.958345890E0,-1.247143745E-1,3.622856664E0
2.102013181E0,1.306862354E0,1.664496899E0,-3.101253510E-2,2.116459524E0
2.106755212E0,1.686120033E-1,2.994923592E-1,1.067528725E-1,3.598914512E-1
2.111497296E0,-8.651129007E-1,-6.245794296E-1,5.913305283E-1,1.219914582E0
2.116239327E0,-1.778899550E0,-1.409291267E0,1.206280708E0,2.570155372E0
2.120981410E0,-2.123668671E0,-1.789055824E0,1.768274784E0,3.292033578E0
2.125723441E0,-2.265184164E0,-2.033361435E0,2.272856236E0,3.798880557E0
2.130465525E0,-2.176944017E0,-1.864291191E0,2.467151165E0,3.781732641E0
2.135207556E0,-1.546569824E0,-1.222327709E0,2.695629120E0,3.339517870E0
2.139949587E0,-7.757204771E-1,-9.297485352E-1,3.758388996E0,3.948627919E0
2.144691671E0,-5.416409969E-1,-1.468843937E0,4.331933498E0,4.606139958E0
2.149433702E0,-9.156461954E-1,-2.333768606E0,4.431636333E0,5.091589580E0
2.154175785E0,-1.531131268E0,-2.534002781E0,4.705728531E0,5.559623554E0
2.158917816E0,-1.414334059E0,-2.218739510E0,4.406639099E0,5.132408206E0
2.163659900E0,-1.108418703E0,-1.356222153E0,3.440988064E0,3.861130586E0
2.168401931E0,-6.405745745E-1,-9.645733833E-1,2.469939232E0,2.727881487E0
2.173144014E0,-5.371524096E-1,-8.732047081E-1,1.394639492E0,1.730906839E0
2.177886046E0,-1.026582003E0,-8.560519218E-1,-2.561516762E-1,1.360995658E0
2.182628077E0,-1.033787251E0,-3.302226067E-1,-1.992027760E0,2.268465923E0
2.187370160E0,9.768402576E-2,3.812122345E-2,-2.903551102E0,2.905443924E0
2.192112191E0,1.281638861E0,-9.276876450E-1,-2.873608589E0,3.280370232E0
2.196854275E0,-5.018290877E-1,-1.821825027E0,-2.632310867E0,3.240360993E0
2.201596306E0,-2.768487215E0,-2.295878887E0,-3.309916019E0,4.887854885E0
2.206338337E0,-3.319217920E0,-2.574230671E0,-4.600198746E0,6.229422096E0
2.211080421E0,-3.118443489E0,-3.099917173E0,-4.114465237E0,6.021876822E0
2.215822452E0,-2.192052126E0,-2.514009714E0,-4.219108582E0,5.378309640E0
2.220564535E0,-2.147392273E0,-2.842581749E0,-4.013318062E0,5.366403492E0
2.225306566E0,-2.756933928E0,-3.607685566E0,-1.564593792E0,4.802502843E0
2.230048598E0,-2.436450481E0,-4.117641449E0,-1.629786491E-1,4.787256426E0
2.234790681E0,-1.711529255E0,-4.468365669E0,1.347961426E-1,4.786835504E0
2.239532712E0,-1.194031000E0,-4.458348751E0,4.635572433E-2,4.615704981E0
2.244274796E0,-1.043921709E0,-4.182803154E0,-7.014274597E-4,4.311103716E0
2.249016827E0,-1.294974804E0,-3.934525728E0,-1.508874893E-1,4.144902832E0
2.253758858E0,-1.763919115E0,-3.886216164E0,-3.452806473E-1,4.281740936E0
2.258500941E0,-2.116523743E0,-3.696323633E0,-6.950230598E-1,4.315731480E0
2.263242973E0,-2.126116991E0,-3.313043356E0,-1.203658581E0,4.116481959E0
2.267985056E0,-1.952569485E0,-2.746878386E0,-1.614411831E0,3.736869548E0
2.272727087E0,-1.540852785E0,-2.212234497E0,-1.923186779E0,3.311624399E0
2.277469118E0,-1.002647042E0,-1.844601154E0,-1.867663383E0,2.809985947E0
2.282211202E0,-6.136927009E-1,-1.565685749E0,-1.329046249E0,2.143444548E0
2.286953233E0,-5.519844294E-1,-1.536237717E0,2.778272629E-1,1.655868691E0
2.291695264E0,5.866017342E-1,-5.623865128E-1,2.400110245E0,2.533951336E0
2.296437348E0,4.197978973E-1,-1.504573822E0,3.284360886E0,3.636894154E0
2.301179379E0,6.621122360E-3,-2.878982306E0,3.133498192E0,4.255278354E0
2.305921462E0,-2.899320126E-1,-4.159702301E0,2.285457611E0,4.755049978E0
2.310663493E0,-5.767349601E-1,-5.085613251E0,1.209802151E0,5.259249623E0
2.315405525E0,-1.094933867E0,-5.783085823E0,1.744046211E-1,5.888410548E0
2.320147608E0,-1.553897381E0,-6.180064678E0,-1.083558083E0,6.463891600E0
2.324889639E0,-2.042050600E0,-6.202308655E0,-2.541986465E0,7.007160516E0
2.329631671E0,-2.720270634E0,-6.134602070E0,-3.884513855E0,7.753880497E0
2.334373754E0,-3.420851231E0,-6.164322376E0,-4.689583778E0,8.467188997E0
2.339115785E0,-3.768909693E0,-6.021101952E0,-4.977696896E0,8.673858159E0
2.343857816E0,-3.652200460E0,-5.852026939E0,-4.832889557E0,8.422684190E0
2.348599900E0,-3.170779705E0,-5.586721420E0,-4.501292706E0,7.843910771E0
2.353341931E0,-2.246916533E0,-5.071713448E0,-3.946350336E0,6.807686257E0
2.358084014E0,-1.101966023E0,-4.235165596E0,-3.324920654E0,5.496003466E0
2.362826046E0,9.352922440E-3,-2.984143734E0,-1.720092297E0,3.444403985E0
2.367568077E0,6.919195652E-1,-1.783789635E0,-1.345081329E0,2.338782146E0
2.372310160E0,7.669883966E-1,-1.437603474E0,-4.137263298E-1,1.681114043E0
2.377052191E0,3.327758312E-1,-1.726779938E0,-6.183500290E-1,1.864099103E0
2.381794223E0,6.830394268E-2,-2.355110168E0,-7.968997955E-1,2.487219053E0
2.386536306E0,9.600925446E-2,-2.816564083E0,-1.244914532E0,3.080919214E0
2.391278337E0,3.515043259E-1,-2.857086182E0,-1.256108761E0,3.140749267E0
2.396020368E0,2.779093981E-1,-2.784576893E0,-1.143315792E0,3.022957675E0
2.400762452E0,-2.338719368E-1,-2.700863361E0,-5.806932449E-1,2.772465261E0
2.405504483E0,-8.004053235E-1,-2.681274891E0,1.429023743E-1,2.801839541E0
2.410246566E0,-1.263763189E0,-2.556901932E0,9.347910881E-1,3.001446196E0
2.414988598E0,-1.649039149E0,-2.683542252E0,1.476871014E0,3.478775233E0
2.419730629E0,-2.895174742E0,-3.937222481E0,1.554639339E0,5.128417019E0
2.424472660E0,-3.177662373E0,-4.565025330E0,1.069216728E0,5.663940221E0
2.429214743E0,-1.408775926E0,-3.068777084E0,4.475975037E-1,3.406227521E0
2.433956775E0,-1.315975189E-2,-1.214123726E0,-1.003384590E-1,1.218333865E0
2.438698806E0,7.210159302E-2,2.626404762E-1,-1.478682518E0,1.503556001E0
2.443440889E0,-2.714016438E-1,2.137177944E0,-2.656791210E0,3.420486508E0
2.448182921E0,-6.708645821E-1,3.611438274E0,-3.788658142E0,5.276976048E0
2.452924952E0,-8.707302809E-1,4.857270718E0,-5.014564991E0,7.035418402E0
2.457667035E0,-8.250585794E-1,5.580386162E0,-6.045027733E0,8.268239938E0
2.462409066E0,-6.643236876E-1,5.823581696E0,-6.624343872E0,8.845188605E0
2.467151098E0,-3.426285982E-1,5.848309040E0,-6.739514828E0,8.929791324E0
2.471893181E0,-2.799376249E-1,5.396108150E0,-6.468871117E0,8.428679717E0
2.476635212E0,-6.362537146E-1,4.495427132E0,-5.786955357E0,7.355442623E0
2.481377243E0,-1.103313923E0,3.632984638E0,-4.794325352E0,6.115671228E0
2.486119327E0,-1.994711876E0,2.408294678E0,-3.574890614E0,4.749589627E0
2.490861358E0,-3.113321304E0,1.144134998E0,-2.567500591E0,4.194505182E0
2.495603389E0,-3.201462746E0,5.252299309E-1,-1.670170784E0,3.648931438E0
2.500345421E0,-2.489453077E0,4.176468849E-1,-7.142224312E-1,2.623341233E0
2.505087504E0,-1.720352173E0,2.319927216E-1,9.976720810E-2,1.738788578E0
2.509829535E0,-4.264440536E-1,5.286798477E-1,1.000122070E0,1.208966942E0
2.514571566E0,7.175095081E-1,8.254609108E-1,2.075730324E0,2.346244230E0
2.519313650E0,1.559777617E0,1.124365330E0,2.920435905E0,3.496576824E0
2.524055681E0,1.438782692E0,7.810020447E-1,3.639985085E0,3.991184191E0
2.528797712E0,6.073644161E-1,-7.712078094E-2,4.162131310E0,4.206920036E0
2.533539743E0,-9.284470081E-1,1.858658791E-1,3.535096645E0,3.659708768E0
2.538281827E0,-1.304115534E0,5.129466057E-1,3.609258175E0,3.871766537E0
2.543023858E0,-6.293224096E-1,3.154706955E-1,3.707274914E0,3.773520338E0
2.547765889E0,6.759507656E-1,4.884252548E-1,3.175266266E0,3.282953628E0
2.552507973E0,1.764427304E0,1.238987446E0,2.000478268E0,2.941123408E0
2.557250004E0,1.998315334E0,2.554214954E0,4.176836014E-1,3.269822289E0
2.561992035E0,1.810226321E0,3.484561443E0,-2.453918457E-1,3.934374784E0
2.566734066E0,1.824955940E0,3.689968109E0,-4.156427383E-1,4.137521929E0
2.571476150E0,1.976118922E0,3.180322647E0,4.744234085E-1,3.774198684E0
2.576218181E0,2.107839108E0,2.368352890E0,1.711480618E0,3.602949766E0
2.580960212E0,2.081170797E0,1.339263439E0,2.945937157E0,3.847524422E0
2.585702296E0,2.103340626E0,4.996337891E-1,3.777004719E0,4.351946732E0
2.590444327E0,1.565462828E0,5.621461868E-1,4.330201626E0,4.638677432E0
2.595186358E0,9.209841490E-1,6.645374298E-1,4.251276970E0,4.400361084E0
2.599928389E0,3.114694357E-1,4.081101418E-1,3.892241001E0,3.925953019E0
2.604670421E0,-3.677327633E-1,4.393577576E-3,3.594705582E0,3.613468542E0
2.609412504E0,-9.531790018E-1,-6.604537964E-1,3.379361153E0,3.572790398E0
2.614154535E0,-1.351388931E0,-1.212873936E0,3.520798683E0,3.961481869E0
2.618896566E0,-1.517582178E0,-1.686095238E0,3.547638416E0,4.210903840E0
2.623638650E0,-1.649535179E0,-1.940427780E0,2.842770100E0,3.816748370E0
2.628380681E0,-1.992217660E0,-1.907610893E0,2.074860096E0,3.451514876E0
2.633122712E0,-2.624925852E0,-1.760191441E0,1.018456459E0,3.320506466E0
2.637864743E0,-3.153630018E0,-1.612700939E0,-3.995938301E-1,3.564528277E0
2.642606827E0,-3.457704067E0,-1.248217106E0,-1.493488073E0,3.967904987E0
2.647348858E0,-3.566979885E0,-8.077902794E-1,-2.171344757E0,4.253305619E0
2.652090889E0,-3.417255402E0,-2.756118774E-1,-2.220137119E0,4.084434504E0
2.656832921E0,-3.256447315E0,1.467704773E-3,-2.572397232E0,4.149901058E0
2.661574952E0,-2.713417768E0,-9.764862061E-2,-3.316123724E0,4.285889382E0
2.666317035E0,-2.357619047E0,-2.457714081E-2,-3.519776821E0,4.236484448E0
2.671059066E0,-1.945631027E0,1.705389023E-1,-3.685743570E0,4.171243133E0
2.675801098E0,-1.382368088E0,6.185340881E-1,-3.616323233E0,3.920627459E0
2.680543129E0,-4.652533531E-1,1.074649811E0,-3.689843416E0,3.871211352E0
2.685285212E0,8.815581799E-1,1.526171684E0,-3.750742197E0,4.144202199E0
2.690027243E0,2.345973492E0,1.957857132E0,-3.731402397E0,4.822878811E0
2.694769275E0,3.185349941E0,2.005619049E0,-3.762139797E0,5.321903595E0
2.699511306E0,3.207939148E0,1.875073433E0,-3.237545252E0,4.928333716E0
2.704253389E0,3.042618275E0,1.826510429E0,-2.368764400E0,4.266697915E0
2.708995421E0,2.800044537E0,1.682417870E0,-1.521274328E0,3.603478164E0
2.713737452E0,2.526336670E0,1.504662514E0,-8.904895782E-1,3.072353811E0
2.718479483E0,3.275785685E0,1.793850899E0,-3.973145485E-1,3.755866311E0
2.723221514E0,4.376746178E0,1.743293762E0,-9.404253960E-2,4.712093404E0
2.727963598E0,5.047610283E0,1.420633316E0,-1.250166893E-1,5.245207123E0
2.732705629E0,5.313830853E0,5.634775162E-1,-4.309816360E-1,5.360974763E0
2.737447660E0,3.760011911E0,-4.148397446E-1,-1.646649837E-1,3.786409400E0
2.742189691E0,1.726067543E0,-1.183209896E0,9.779126644E-1,2.309893504E0
2.746931775E0,2.149221897E-1,-1.949550629E0,2.392310381E0,3.093555909E0
2.751673806E0,-4.171342850E-1,-2.692329407E0,3.364201307E0,4.329028653E0
2.756415837E0,-5.077576637E-1,-3.165503979E0,3.762477875E0,4.943123814E0
2.761157868E0,-2.209510803E-1,-3.090127945E0,3.867106438E0,4.955019909E0
2.765899900E0,5.086166859E-1,-2.455482960E0,3.573357105E0,4.365428788E0
2.770641931E0,1.335055351E0,-9.546928406E-1,3.360530138E0,3.739916312E0
2.775384014E0,3.165010214E0,-4.306211472E-1,2.965244055E0,4.358370857E0
2.780126046E0,4.617039680E0,6.195354462E-2,1.930289268E0,5.004688833E0
2.784868077E0,5.640040398E0,6.327323914E-1,1.108932257E0,5.782744739E0
2.789610108E0,6.740438461E0,1.042263985E0,3.131194115E-1,6.827727926E0
2.794352139E0,7.860304832E0,9.138307571E-1,-1.746110082E0,8.103602849E0
2.799094223E0,9.535230637E0,4.669284821E-2,-4.397183895E0,1.050038236E1
2.803836254E0,1.156006622E1,-2.633798122E0,-7.682390213E0,1.412767295E1
2.808578285E0,1.291454124E1,-8.568076134E0,-5.347120285E0,1.639478574E1
2.813320316E0,1.044990730E1,-8.018761635E0,-3.738672495E0,1.369228881E1
2.818062348E0,8.271699905E0,-7.083665848E0,-2.509259224E0,1.117567551E1
2.822804431E0,6.573986053E0,-6.063615799E0,-3.191297054E0,9.495741471E0
2.827546462E0,4.594958305E0,-5.330905914E0,-2.924789667E0,7.621456179E0
2.832288493E0,2.940908909E0,-4.418807507E0,-1.476836801E0,5.509614499E0
2.837030525E0,1.116903424E-1,-4.983999252E0,-4.739124775E-1,5.007725663E0
2.841772556E0,-1.849619627E0,-4.199306011E0,5.720977783E-1,4.624127984E0
2.846514587E0,-3.634652138E0,-2.877884388E0,1.046125412E0,4.752609082E0
2.851256671E0,-5.216736317E0,-1.506685257E0,1.304174423E0,5.584380824E0
2.855998702E0,-6.415213585E0,-3.830938339E-1,1.297091722E0,6.556231628E0
2.860740733E0,-6.296088219E0,6.288385391E-1,9.292628765E-1,6.395286879E0
2.865482764E0,-5.133947849E0,1.473938942E0,4.966011047E-1,5.364375936E0
2.870224796E0,-3.625869751E0,1.765248299E0,-2.748804092E-1,4.042102454E0
2.874966827E0,-4.582629204E0,-1.337051392E-1,-1.058448911E0,4.705176041E0
2.879708910E0,-3.824862242E0,-1.121840477E0,-7.096467018E-1,4.048665912E0
2.884450941E0,-1.577072144E0,-1.021251678E0,-1.915974617E-1,1.888602956E0
2.889192973E0,-6.884284616E-1,-1.339225769E0,-5.335254669E-1,1.597532106E0
2.893935004E0,-5.590194464E-1,-1.804889679E0,-6.161800623E-1,1.987412228E0
2.898677035E0,-8.316860199E-1,-2.305853367E0,7.669091225E-2,2.452456499E0
2.903419066E0,-7.309856415E-1,-2.655965805E0,1.425684452E0,3.101785054E0
2.908161098E0,-3.832365870E-1,-2.652650833E0,3.266573429E0,4.225390951E0
2.912903181E0,1.140756011E-1,-2.339835167E0,5.146359444E0,5.654454649E0
2.917645212E0,5.165263414E-1,-1.902424812E0,6.636516094E0,6.923103747E0
2.922387243E0,5.860046744E-1,-1.498674870E0,7.430448532E0,7.602696445E0
2.927129275E0,5.192300677E-1,-1.248240471E0,7.615860462E0,7.734923058E0
2.931871306E0,5.514692068E-1,-1.198534012E0,7.102142811E0,7.223644134E0
2.936613337E0,5.212473869E-1,-1.508951187E0,5.778503895E0,5.994976212E0
2.941355368E0,5.620608330E-1,-1.690438271E0,3.742280483E0,4.144654044E0
2.946097452E0,4.547259808E-1,-9.623813629E-1,5.050308704E-1,1.178138271E0
2.950839483E0,9.169228077E-1,1.759376526E-1,-3.963382006E0,4.071866699E0
2.955581514E0,1.231278419E0,1.112985611E0,-7.550443172E0,7.730716372E0
2.960323546E0,1.082475901E0,1.966838837E0,-1.026060295E1,1.050334147E1
2.965065577E0,9.268704653E-1,2.365089417E0,-1.202891922E1,1.229421142E1
2.969807608E0,-8.276146650E-2,2.552156448E0,-1.251453972E1,1.277239431E1
2.974549639E0,-1.184866786E0,2.917739868E0,-1.186474133E1,1.227555302E1
2.979291671E0,-1.900960922E0,3.217460632E0,-1.018393993E1,1.084796469E1
2.984033754E0,-2.188090324E0,3.049345016E0,-7.710519314E0,8.575450565E0
2.988775785E0,-2.744699001E0,2.408453941E0,-4.716982841E0,5.965228422E0
2.993517816E0,-2.961951733E0,1.629274368E0,-1.930710077E0,3.892985286E0
2.998259848E0,-2.720139027E0,9.551486969E-1,2.043949366E-1,2.890197683E0
3.003001879E0,-1.737330437E0,5.313024521E-1,1.718796253E0,2.500971792E0
3.007743910E0,-6.039495468E-1,2.469778061E-1,2.706449270E0,2.783993668E0
3.012485941E0,1.333734691E-1,2.852468491E-1,3.732550859E0,3.745809681E0
3.017227973E0,6.661911011E-1,4.441280365E-1,4.126770496E0,4.203723947E0
3.021970004E0,4.305173159E-1,1.827545166E-1,3.710968971E0,3.740325531E0
3.026712087E0,-1.764659584E-1,-4.581098557E-1,3.474088192E0,3.508602805E0
3.031454118E0,-4.937680066E-1,-9.979991913E-1,3.717866182E0,3.881022826E0
3.036196150E0,-7.583692670E-1,-1.249170303E0,4.775839806E0,4.994416507E0
3.040938181E0,-9.430285692E-1,-1.561487675E0,4.588975430E0,4.938242818E0
3.045680212E0,-8.879740238E-1,-2.042087078E0,3.515817881E0,4.161681496E0
3.050422243E0,-4.025904536E-1,-2.544088364E0,2.030206442E0,3.279665055E0
3.055164275E0,3.311072290E-1,-3.006735325E0,5.785453320E-1,3.079740900E0
3.059906306E0,1.282647729E0,-3.319280624E0,-6.751871109E-1,3.621972763E0
3.064648337E0,2.520864248E0,-3.471734524E0,-1.523878813E0,4.553010410E0
3.069390368E0,3.710237980E0,-3.509392262E0,-2.082516909E0,5.515303853E0
3.074132400E0,4.620291710E0,-3.628295422E0,-2.302509069E0,6.309767917E0
3.078874483E0,5.154224873E0,-3.880878448E0,-2.235153913E0,6.828115742E0
3.083616514E0,5.405888557E0,-4.171411037E0,-2.062423468E0,7.132874014E0
3.088358546E0,5.458906651E0,-4.430597305E0,-1.800816536E0,7.257602531E0
3.093100577E0,5.231513977E0,-4.749379635E0,-1.619641304E0,7.249040168E0
3.097842608E0,5.089649200E0,-5.187428951E0,-1.403636336E0,7.401631109E0
3.102584639E0,5.148618698E0,-5.581933022E0,-1.104987144E0,7.673802665E0
3.107326671E0,5.126406670E0,-5.894474030E0,-8.244733810E-1,7.855229200E0
3.112068702E0,4.668554306E0,-6.098360538E0,-6.467279196E-1,7.707376828E0
3.116810733E0,4.048777580E0,-6.408559322E0,-6.362524033E-1,7.607039477E0
3.121552764E0,3.490192890E0,-6.752781391E0,-1.027553558E0,7.670552082E0
3.126294796E0,2.854468822E0,-7.022850037E0,-1.706504583E0,7.770493729E0
3.131036827E0,2.228603840E0,-7.153730869E0,-2.301387310E0,7.838298538E0
3.135778858E0,1.408876657E0,-6.996876717E0,-2.849915981E0,7.685261110E0
3.140520889E0,3.033339977E-1,-6.721957207E0,-3.581218243E0,7.622456579E0
3.145262921E0,-9.311352968E-1,-6.355384827E0,-3.864767551E0,7.496289580E0
3.150005004E0,-5.454738140E-1,-3.906398296E0,-3.829113960E0,5.497235947E0
3.154747035E0,5.945168495E0,6.587303162E0,-4.577582359E0,9.984580694E0
3.159489066E0,1.201195717E1,1.787157440E1,-5.763319016E0,2.229116715E1
3.164231098E0,1.367069817E1,2.681382370E1,-6.655260086E0,3.082469167E1
3.168973129E0,8.717425346E0,2.947488785E1,-6.545647621E0,3.142623142E1
3.173715160E0,-3.389246464E-1,2.628031540E1,-4.798330784E0,2.671692021E1
3.178457191E0,-8.645138741E0,2.212154770E1,-2.836435318E0,2.391958741E1
3.183199223E0,-1.384199715E1,1.794459534E1,-1.752121568E0,2.273058109E1
3.187941254E0,-1.529257679E1,1.320229816E1,-3.817238808E-1,2.020666461E1
3.192683285E0,-1.174835873E1,7.805711746E0,3.329808712E-1,1.410900226E1
3.197425316E0,-6.168233871E0,3.621617317E0,1.561080694E0,7.321215338E0
3.202167348E0,-1.342910767E0,1.568385124E0,4.127335072E0,4.614990359E0
3.206909379E0,2.576481342E0,6.412744522E-1,1.027390671E1,1.061143949E1
3.211651410E0,5.014823437E0,-1.344537735E-1,1.839878082E1,1.907043963E1
3.216393441E0,5.906188011E0,1.641187668E-1,1.407462692E1,1.526450506E1
3.221135473E0,6.352878094E0,-8.626804352E-1,1.116272354E1,1.287282698E1
3.225877504E0,6.797403812E0,-2.389508724E0,9.297496796E0,1.176256338E1
3.230619535E0,7.167187691E0,-3.410145760E0,6.335201263E0,1.015541474E1
3.235361566E0,7.110764027E0,-4.182474613E0,3.854277134E0,9.105575828E0
3.240103598E0,6.441828251E0,-4.940588474E0,2.354399920E0,8.452796263E0
3.244845629E0,5.522519588E0,-5.463901520E0,1.110530615E0,7.847657018E0
3.249587660E0,4.553332329E0,-5.529524803E0,-1.236588955E-1,7.164061095E0
3.254329691E0,3.653923035E0,-5.154036045E0,-1.218638659E0,6.434308143E0
3.259071723E0,2.828505516E0,-4.366398335E0,-1.871943474E0,5.529018922E0
3.263813754E0,2.135737419E0,-3.435080528E0,-2.115172625E0,4.564549024E0
3.268555785E0,1.517551064E0,-2.644839764E0,-2.338719368E0,3.842882628E0
3.273297816E0,1.035944581E0,-1.892713547E0,-2.595520258E0,3.375243866E0
3.278039848E0,6.583798528E-1,-1.104638100E0,-2.756567478E0,3.041768174E0
3.282781879E0,4.821534455E-1,-2.257499695E-1,-2.920179129E0,2.968312844E0
3.287523910E0,5.068030953E-1,6.217956543E-1,-3.064849615E0,3.168088126E0
3.292265941E0,6.676152945E-1,1.387667656E0,-3.109061480E0,3.469523741E0
3.297007973E0,9.216409922E-1,1.947529793E0,-3.119642735E0,3.791367194E0
3.301750004E0,1.099028707E0,2.315843582E0,-3.139326096E0,4.052945093E0
3.306492035E0,1.235519052E0,2.471134186E0,-3.045680761E0,4.112077673E0
3.311234066E0,1.294955015E0,2.442101479E0,-2.814291000E0,3.944743586E0
3.315976098E0,1.323046327E0,2.431938171E0,-2.317873955E0,3.610722161E0
3.320718129E0,1.466231108E0,2.512124062E0,-1.728214383E0,3.383389708E0
3.325460160E0,1.636941910E0,2.790055275E0,-9.948375225E-1,3.384329911E0
3.330202191E0,1.699551582E0,3.157847404E0,-3.400275707E-1,3.602234662E0
3.334944223E0,1.659065485E0,3.560398102E0,3.391542435E-1,3.942582723E0
3.339686254E0,1.517617106E0,3.880581856E0,9.205152988E-1,4.267250360E0
3.344428285E0,1.451433420E0,4.087487221E0,1.336977482E0,4.538911713E0
3.349170316E0,1.440686941E0,4.090049744E0,2.441023588E0,4.976211604E0
3.353912348E0,1.196435213E0,3.763582230E0,4.210114479E0,5.772440761E0
3.358654379E0,6.157168150E-1,3.062537193E0,5.998011589E0,6.762720183E0
3.363396410E0,7.037500739E-1,2.805464745E0,7.006299973E0,7.579850652E0
3.368138441E0,8.408039808E-1,2.937610626E0,6.885471344E0,7.533008904E0
3.372880473E0,7.618188858E-1,3.033736229E0,5.823845863E0,6.610681066E0
3.377622504E0,5.274701118E-1,2.850651741E0,4.526235580E0,5.375058009E0
3.382364535E0,7.403644323E-1,2.370109558E0,3.127778530E0,3.993564491E0
3.387106566E0,5.374369621E-1,1.841375351E0,1.795086861E0,2.627135038E0
3.391848598E0,-5.725926161E-2,1.446141243E0,8.554477692E-1,1.681188271E0
3.396590629E0,-5.917138457E-1,1.174416542E0,2.752349377E-1,1.343552664E0
3.401332660E0,-9.413387775E-1,1.102290154E0,-1.200695038E-1,1.454502995E0
3.406074691E0,-1.131380320E0,1.095508575E0,-3.497126102E-1,1.613213990E0
3.410816723E0,-1.452338815E0,8.598966599E-1,-5.766811371E-1,1.783611906E0
3.415558754E0,-1.545696139E0,7.519721985E-1,-7.149004936E-1,1.861644826E0
3.420300785E0,-1.578785896E0,8.768405914E-1,-8.579972982E-1,1.999393331E0
3.425042816E0,-1.723535299E0,9.856147766E-1,-1.051591039E0,2.246743005E0
3.429784848E0,-1.991593957E0,1.109461784E0,-1.142801762E0,2.550166231E0
3.434526879E0,-2.461927414E0,1.195730209E0,-1.172378302E0,2.977470102E0
3.439268910E0,-2.993928909E0,1.263440132E0,-1.073139668E0,3.422209816E0
3.444010889E0,-3.530896664E0,1.369856834E0,-9.885549545E-1,3.914202332E0
3.448752921E0,-3.867892981E0,1.514755249E0,-8.393843174E-1,4.237882208E0
3.453494952E0,-4.024850368E0,1.561656952E0,-6.852102280E-1,4.371236207E0
3.458236983E0,-3.887438774E0,1.606142998E0,-2.407873869E-1,4.213057573E0
3.462979014E0,-3.439020872E0,1.643117905E0,8.564916849E-1,3.906440709E0
3.467721046E0,-2.733806610E0,1.667559624E0,2.381336927E0,3.990641457E0
3.472463077E0,-1.882624745E0,1.753650665E0,3.976745129E0,4.736461591E0
3.477205108E0,-1.221117973E0,1.834623337E0,5.196839333E0,5.644830462E0
3.481947139E0,-1.123955250E0,1.585624695E0,5.810490608E0,6.126930894E0
3.486689171E0,-1.428896189E0,1.200864792E0,6.227417946E0,6.501119507E0
3.491431202E0,-1.874060631E0,8.980598450E-1,6.694526672E0,7.009657773E0
3.496173233E0,-1.840567231E0,8.925733566E-1,6.577548504E0,6.888288557E0
3.500915264E0,-2.202735186E0,5.412149429E-1,5.533287525E0,5.980152736E0
3.505657296E0,-2.227524757E0,1.147594452E-1,4.448155880E0,4.976055366E0
3.510399327E0,-1.806529880E0,2.398366928E-1,3.573323250E0,4.011198187E0
3.515141358E0,-2.213252544E0,-3.871746063E-1,1.237804532E0,2.565258478E0
3.519883389E0,-1.947260380E0,-8.470163345E-1,-2.578494847E-1,2.139099347E0
3.524625368E0,-2.017957687E0,-1.477078438E0,-1.168235898E0,2.760197285E0
3.529367400E0,-1.984487057E0,-1.882833481E0,-1.351531863E0,3.051211099E0
3.534109431E0,-1.954039574E0,-2.179547310E0,-1.253715038E0,3.184414943E0
3.538851462E0,-2.043637991E0,-2.446552753E0,-8.943945169E-1,3.310893862E0
3.543593493E0,-2.377888918E0,-2.808611870E0,-4.533704817E-1,3.707856677E0
3.548335525E0,-2.399197340E0,-3.143871784E0,2.875914276E-1,3.965196906E0
3.553077556E0,-2.413897514E0,-3.282813072E0,9.172071815E-1,4.176725020E0
3.557819587E0,-2.651816368E0,-3.455497742E0,1.129404306E0,4.499794304E0
3.562561618E0,-3.062999964E0,-3.396785259E0,1.917371273E0,4.959478952E0
3.567303650E0,-3.695733309E0,-3.322500229E0,2.165904522E0,5.421124870E0
3.572045681E0,-3.954330444E0,-3.359578609E0,1.632650137E0,5.439581249E0
3.576787660E0,-3.915168285E0,-3.359698296E0,9.028148055E-1,5.237479347E0
3.581529691E0,-3.677974939E0,-3.394528389E0,2.841681242E-1,5.013090281E0
3.586271723E0,-3.311436653E0,-3.624116421E0,-4.442926049E-1,4.929221892E0
3.591013754E0,-2.881596327E0,-3.894993305E0,-1.072634697E0,4.962369941E0
3.595755785E0,-2.155402422E0,-4.230722904E0,-1.716052532E0,5.048723818E0
3.600497816E0,-1.569951296E0,-4.654877186E0,-2.276708126E0,5.414427816E0
3.605239848E0,-7.651546001E-1,-5.116710186E0,-2.795464039E0,5.880544523E0
3.609981879E0,-5.829787254E-2,-5.723303795E0,-2.924644709E0,6.427530758E0
3.614723910E0,1.253624678E0,-6.031161308E0,-8.607527018E-1,6.219917746E0
3.619465889E0,2.921868801E0,-4.270222187E0,3.783104420E0,6.409679701E0
3.624207921E0,3.045457602E0,-4.326104641E0,5.607753992E-1,5.320193833E0
3.628949952E0,2.367881298E0,-4.382256985E0,-3.186169147E0,5.912927529E0
3.633691983E0,1.111713290E0,-4.224084377E0,-3.463776827E0,5.574634084E0
3.638434014E0,6.845210791E-1,-3.954823494E0,-3.112963915E0,5.079344673E0
3.643176046E0,6.302783489E-1,-3.519619465E0,-3.298273802E0,4.864522797E0
3.647918077E0,6.083493233E-1,-3.007221699E0,-2.181932926E0,3.764877493E0
3.652660108E0,9.962334633E-1,-2.668839455E0,-9.008328915E-1,2.987755855E0
3.657402087E0,9.604250193E-1,-2.530825615E0,-5.493698120E-1,2.762119060E0
3.662144118E0,8.880503178E-1,-2.399529934E0,-4.395521581E-1,2.596070756E0
3.666886150E0,1.207377076E0,-2.210432053E0,-1.496270299E-1,2.523124553E0
3.671628181E0,1.619810104E0,-2.030424118E0,-1.723822653E-1,2.603098638E0
3.676370212E0,1.656860232E0,-1.716024876E0,-2.135416865E-1,2.394896084E0
3.681112243E0,1.131785154E0,-1.604792595E0,-2.876378596E-1,1.984699586E0
3.685854275E0,5.847024918E-1,-1.486332417E0,-5.652024746E-1,1.694259394E0
3.690596254E0,-7.145595551E-2,-1.337075710E0,-6.206471920E-1,1.475832086E0
3.695338285E0,-3.897433281E-1,-9.970178604E-1,-5.499172211E-1,1.203475561E0
3.700080316E0,-2.007007599E-2,-5.305252075E-1,-6.645944118E-1,8.506147989E-1
3.704822348E0,4.305517673E-1,1.712799072E-2,-6.607059836E-1,7.887969252E-1
3.709564379E0,2.462725639E-1,7.195434570E-1,-3.532409072E-1,8.385535766E-1
3.714306410E0,-2.435886860E-1,1.200447083E0,9.626400471E-2,1.228688490E0
3.719048441E0,-4.010646343E-1,1.397375107E0,6.343983412E-1,1.586181353E0
3.723790421E0,-1.361632109E0,1.536450386E0,1.426460981E0,2.499902542E0
3.728532452E0,-2.091894388E0,1.960770607E0,3.074002981E0,4.203586306E0
3.733274483E0,-1.797654867E0,2.091342926E0,3.309525013E0,4.307926887E0
3.738016514E0,-1.156305790E0,2.137096405E0,2.648369789E0,3.594173989E0
3.742758546E0,-5.651447773E-1,1.866806030E0,1.568307519E0,2.502786816E0
3.747500577E0,6.822586060E-3,1.503777504E0,6.351521015E-1,1.632425043E0
3.752242608E0,4.971966743E-1,1.079586983E0,9.685075283E-2,1.192515264E0
3.756984587E0,1.004137039E0,6.209554672E-1,-2.237874269E-1,1.201647909E0
3.761726618E0,1.571188450E0,1.905040741E-1,-4.457982779E-1,1.644281318E0
3.766468650E0,2.012136936E0,-1.063241959E-1,-6.134302616E-1,2.106251782E0
3.771210681E0,2.444768667E0,-3.555326462E-1,-6.317969561E-1,2.549993077E0
3.775952712E0,2.809766054E0,-5.402507782E-1,-5.397354960E-1,2.911695483E0
3.780694743E0,3.030906200E0,-6.532945633E-1,-4.212997556E-1,3.129006179E0
3.785436723E0,3.381149292E0,-6.875267029E-1,-1.545023322E-1,3.453800005E0
3.790178754E0,3.542479753E0,-7.027578354E-1,-8.394807577E-2,3.612489261E0
3.794920785E0,3.606315613E0,-5.936927795E-1,-4.214811325E-2,3.655100529E0
3.799662816E0,3.529626846E0,-5.733203888E-1,2.124507427E-1,3.582191684E0
3.804404848E0,3.379563570E0,-6.199827194E-1,5.408035517E-1,3.478260625E0
3.809146879E0,3.364901066E0,-6.974401474E-1,5.832214355E-1,3.485560096E0
3.813888858E0,3.565145016E0,-8.125114441E-1,6.331762671E-1,3.710976423E0
3.818630889E0,3.815637827E0,-9.171066284E-1,6.924663186E-1,3.984932395E0
3.823372921E0,3.865592241E0,-8.939981461E-1,9.858807325E-1,4.088275539E0
3.828114952E0,3.769677639E0,-8.630142212E-1,9.962804317E-1,3.993474395E0
3.832856983E0,3.790717125E0,-8.337364197E-1,9.361598492E-1,3.992624200E0
3.837598962E0,3.847268581E0,-7.486715317E-1,8.742957115E-1,4.015766128E0
3.842340993E0,3.913269520E0,-6.268720627E-1,9.396125078E-1,4.073023273E0
3.847083025E0,4.091819286E0,-4.324092865E-1,1.072400093E0,4.252058892E0
3.851825056E0,4.230082035E0,-2.848548889E-1,1.182379723E0,4.401449550E0
3.856567087E0,4.309064388E0,-1.148118973E-1,1.289476991E0,4.499329793E0
3.861309066E0,4.470242023E0,6.335544586E-2,1.521443486E0,4.722485357E0
3.866051098E0,4.673138618E0,2.687520981E-1,1.802580237E0,5.015949337E0
3.870793129E0,4.798445702E0,4.558410645E-1,2.055172205E0,5.239905058E0
3.875535160E0,4.927811146E0,5.815153122E-1,2.352075100E0,5.491242120E0
3.880277191E0,4.980155945E0,6.672697067E-1,2.579417229E0,5.648061202E0
3.885019171E0,4.958168983E0,6.891107559E-1,2.745405436E0,5.709252517E0
3.889761202E0,4.874084473E0,6.374301910E-1,2.855615139E0,5.684853078E0
3.894503233E0,4.730508804E0,3.663034439E-1,2.898932934E0,5.560189198E0
3.899245264E0,4.441429138E0,6.000137329E-2,2.815960407E0,5.259232451E0
3.903987296E0,4.045227051E0,-3.030862808E-1,2.652592659E0,4.846851659E0
3.908729275E0,3.563304424E0,-6.584730148E-1,2.444956779E0,4.371331466E0
3.913471306E0,3.095908165E0,-1.046941757E0,2.197939634E0,3.938486136E0
3.918213337E0,2.501534939E0,-1.461503506E0,2.277875900E0,3.685429170E0
3.922955368E0,1.798639774E0,-1.880944729E0,2.355015278E0,3.509865392E0
3.927697400E0,1.003120542E0,-2.346378803E0,2.724596024E0,3.732983766E0
3.932439379E0,3.679479361E-1,-2.805507183E0,2.999864578E0,4.123765721E0
3.937181410E0,-3.792381287E-2,-3.143792152E0,3.155331373E0,4.454321877E0
3.941923441E0,-3.126542568E-1,-3.447504044E0,3.193741560E0,4.709885558E0
3.946665473E0,-5.425372124E-1,-3.649687290E0,3.122096062E0,4.833430227E0
3.951407452E0,-7.660624981E-1,-3.525570393E0,2.889543295E0,4.622332614E0
3.956149483E0,-9.970723391E-1,-3.127756596E0,2.597710609E0,4.186300871E0
3.960891514E0,-1.030692220E0,-2.357861996E0,2.297486544E0,3.449678834E0
3.965633546E0,-9.682661295E-1,-1.196449280E0,1.912600636E0,2.455009444E0
3.970375577E0,-1.052473664E0,1.342601776E-1,1.489005327E0,1.828349932E0
3.975117556E0,-1.066271305E0,1.730348587E0,1.271251798E0,2.397315553E0
3.979859587E0,-1.393442512E0,3.417407036E0,1.114343643E0,3.855141325E0
3.984601618E0,-1.913274050E0,4.899030685E0,1.510454774E0,5.471982536E0
3.989343650E0,-2.544144869E0,6.397952080E0,1.736472964E0,7.100831098E0
3.994085629E0,-3.442165136E0,7.904513359E0,1.768559813E0,8.801001993E0
3.998827660E0,-4.559011459E0,9.148306847E0,1.508186340E0,1.033202447E1
4.003569691E0,-6.092765808E0,1.005985260E1,1.063794255E0,1.180906803E1
4.008311723E0,-7.306467533E0,1.089268398E1,9.533166885E-3,1.311621603E1
4.013053702E0,-8.201089859E0,1.159403610E1,-7.467477322E-1,1.422101193E1
4.017795733E0,-8.788299561E0,1.219967461E1,-9.448775053E-1,1.506516058E1
4.022537764E0,-8.718266487E0,1.228655148E1,-1.590742230E0,1.514919069E1
4.027279796E0,-8.235447884E0,1.193953609E1,-2.445824385E0,1.470908498E1
4.032021775E0,-7.125525951E0,1.163071156E1,-2.401709080E0,1.384972122E1
4.036763806E0,-6.274382591E0,1.049213600E1,-2.467633963E0,1.247164833E1
4.041505837E0,-5.320732594E0,9.357193947E0,-2.513633728E0,1.105376083E1
4.046247868E0,-4.288055420E0,8.376772881E0,-2.402134180E0,9.712259871E0
4.050989848E0,-3.045303822E0,7.754419327E0,-2.316044569E0,8.646904470E0
4.055731879E0,-1.862522602E0,7.339581490E0,-2.009854317E0,7.834408801E0
4.060473910E0,-9.989377260E-1,6.632236481E0,-1.684976339E0,6.915459680E0
4.065215941E0,-9.975513220E-1,5.799835205E0,-1.406934381E0,6.050839727E0
4.069957921E0,-1.608648777E0,5.156958580E0,-8.093037605E-1,5.462320501E0
4.074699952E0,-2.150698900E0,4.814326286E0,2.669217587E-1,5.279629776E0
4.079441983E0,-2.165939808E0,5.050805092E0,1.254874229E0,5.637076961E0
4.084184014E0,-2.105648756E0,5.810037613E0,2.772585630E0,6.773294976E0
4.088925993E0,-2.409575939E0,6.741489410E0,4.099863529E0,8.250007069E0
4.093668025E0,-2.894211054E0,7.752860069E0,5.449995041E0,9.908871925E0
4.098410056E0,-3.454181433E0,8.706295967E0,6.765676498E0,1.155445097E1
4.103152087E0,-4.100997925E0,9.425834656E0,7.465475082E0,1.270424579E1
4.107894066E0,-4.942457199E0,1.014775658E1,9.593808174E0,1.481370993E1
4.112636098E0,-5.220917225E0,1.079262829E1,1.107172585E1,1.631937239E1
4.117378129E0,-5.061118126E0,1.092251587E1,9.957237244E0,1.562251078E1
4.122120108E0,-4.695999622E0,1.034021568E1,8.309059143E0,1.407170696E1
4.126862139E0,-4.303856373E0,9.169853210E0,6.659635544E0,1.212271146E1
4.131604171E0,-3.747037649E0,7.486063957E0,4.788823605E0,9.644390921E0
4.136346150E0,-3.130336761E0,5.584089279E0,2.312812567E0,6.806626425E0
4.141088181E0,-2.547132730E0,3.918904305E0,1.685333252E-1,4.676975473E0
4.145830212E0,-1.962564468E0,2.612126350E0,-1.467689037E0,3.581755781E0
4.150572243E0,-1.408101916E0,1.684264183E0,-2.657853365E0,3.447271581E0
4.155314223E0,-1.061124921E0,9.040575027E-1,-3.345464706E0,3.624284780E0
4.160056254E0,-9.366539717E-1,2.980909348E-1,-3.554010153E0,3.687433665E0
4.164798285E0,-8.229351044E-1,-9.797668457E-2,-3.439833641E0,3.538259049E0
4.169540264E0,-6.229894161E-1,-3.826713562E-1,-3.057795048E0,3.143988507E0
4.174282296E0,-3.523266315E-1,-7.500629425E-1,-2.586841583E0,2.716335371E0
4.179024327E0,-3.166515827E-1,-1.243399620E0,-2.184279680E0,2.533256513E0
4.183766358E0,-5.231782198E-1,-1.896522045E0,-1.609849334E0,2.542071241E0
4.188508337E0,-5.530475378E-1,-2.389212608E0,-1.121015429E0,2.696455833E0
4.193250368E0,-5.472790003E-1,-3.004083157E0,-6.332485676E-1,3.118498623E0
4.197992400E0,-5.104916096E-1,-3.688657761E0,-2.078361511E-1,3.729610385E0
4.202734379E0,-2.601183653E-1,-4.318687916E0,2.040400505E-1,4.331323033E0
4.207476410E0,-8.808374405E-3,-5.040318966E0,5.794472694E-1,5.073524613E0
4.212218441E0,1.764577627E-1,-5.805851936E0,7.973597050E-1,5.863005761E0
4.216960421E0,4.512281418E-1,-6.459894180E0,8.105704784E-1,6.526167647E0
4.221702452E0,7.221268415E-1,-7.067181587E0,7.391495705E-1,7.142329091E0
4.226444483E0,9.026403427E-1,-7.713927746E0,6.288375854E-1,7.791975203E0
4.231186462E0,1.001854181E0,-8.366661072E0,4.964864254E-1,8.441044252E0
4.235928493E0,9.545477629E-1,-9.015858650E0,3.683450222E-1,9.073728379E0
4.240670525E0,8.605958819E-1,-9.594544411E0,2.296321392E-1,9.635799844E0
4.245412504E0,7.504204512E-1,-1.006690884E1,2.723979950E-2,1.009487624E1
4.250154535E0,6.999828815E-1,-1.037567520E1,-1.578979492E-1,1.040045882E1
4.254896566E0,6.561009884E-1,-1.056402683E1,-4.149467945E-1,1.059251208E1
4.259638546E0,6.639187932E-1,-1.071574783E1,-5.650572777E-1,1.075115480E1
4.264380577E0,6.966124773E-1,-1.081884289E1,-8.460536003E-1,1.087420972E1
4.269122608E0,7.469314337E-1,-1.089475346E1,-1.096242189E0,1.097521327E1
4.273864639E0,8.531640172E-1,-1.094823456E1,-1.220661998E0,1.104906080E1
4.278606618E0,1.000890017E0,-1.098414803E1,-1.305670381E0,1.110666754E1
4.283348650E0,1.187861919E0,-1.097868156E1,-1.255424023E0,1.111389015E1
4.288090629E0,1.301830888E0,-1.093917179E1,-1.160439610E0,1.107731300E1
4.292832660E0,1.421948910E0,-1.089684677E1,-9.437317252E-1,1.102967986E1
4.297574691E0,1.534152627E0,-1.089480495E1,-8.130728006E-1,1.103229290E1
4.302316671E0,1.664963007E0,-1.092581558E1,-6.917980313E-1,1.107357812E1
4.307058702E0,1.704521060E0,-1.093963623E1,-6.778709292E-1,1.109236413E1
4.311800733E0,1.755821466E0,-1.089089203E1,-5.462391376E-1,1.104503578E1
4.316542712E0,1.811760783E0,-1.087056732E1,-4.689158201E-1,1.103048472E1
4.321284743E0,1.831590414E0,-1.076154232E1,-3.594190478E-1,1.092221125E1
4.326026775E0,1.724107385E0,-1.070030880E1,-2.679361105E-1,1.084163016E1
4.330768754E0,1.642011881E0,-1.065339565E1,-3.286372423E-1,1.078420347E1
4.335510785E0,1.493867517E0,-1.066863728E1,-5.228564143E-1,1.078539940E1
4.340252816E0,1.360401154E0,-1.072684860E1,-7.413966656E-1,1.083815673E1
4.344994796E0,1.224112630E0,-1.078978729E1,-1.080610514E0,1.091263857E1
4.349736827E0,1.177723765E0,-1.084310818E1,-1.448076010E0,1.100258844E1
4.354478806E0,1.153788567E0,-1.091548157E1,-1.923722267E0,1.114359337E1
4.359220837E0,1.178560615E0,-1.091596603E1,-2.280886173E0,1.121382010E1
4.363962868E0,1.326175451E0,-1.092112732E1,-2.567766190E0,1.129704326E1
4.368704848E0,1.412518263E0,-1.089742470E1,-2.729536295E0,1.132251921E1
4.373446879E0,1.492821693E0,-1.088788891E1,-2.797281742E0,1.134016872E1
4.378188910E0,1.531301975E0,-1.088052464E1,-2.751608372E0,1.132704951E1
4.382930889E0,1.570986271E0,-1.093033028E1,-2.549111843E0,1.133305294E1
4.387672921E0,1.595335126E0,-1.094400501E1,-2.164987087E0,1.126958335E1
4.392414952E0,1.652358890E0,-1.102683735E1,-1.787268639E0,1.129228768E1
4.397156931E0,1.720481277E0,-1.108547497E1,-1.532643318E0,1.132240286E1
4.401898962E0,1.845031261E0,-1.114139462E1,-1.444045067E0,1.138508149E1
4.406640941E0,1.939645529E0,-1.119455147E1,-1.372979879E0,1.144400634E1
4.411382973E0,2.059108734E0,-1.125443840E1,-1.278849363E0,1.151250486E1
4.416125004E0,2.066764832E0,-1.138555336E1,-1.099457264E0,1.162373212E1
4.420866983E0,2.125184536E0,-1.148487854E1,-9.640629292E-1,1.171956747E1
4.425609014E0,2.205608606E0,-1.159531212E1,-8.896285892E-1,1.183669766E1
4.430351046E0,2.233815670E0,-1.167603111E1,-8.953002691E-1,1.192145954E1
4.435093025E0,2.217188358E0,-1.171734905E1,-7.919569016E-1,1.195154336E1
4.439835056E0,2.122568607E0,-1.173833466E1,-5.888296366E-1,1.194322060E1
4.444577035E0,2.043779135E0,-1.169109917E1,-3.476169109E-1,1.187348603E1
4.449319066E0,2.050787926E0,-1.166167068E1,-1.756666899E-1,1.184192354E1
4.454061098E0,2.268810272E0,-1.147526550E1,-1.135537624E-1,1.169795336E1
4.458803077E0,2.879082441E0,-1.085681629E1,8.020710945E-2,1.123236435E1
4.463545108E0,3.402785778E0,-9.706303596E0,5.061540604E-1,1.029793535E1
4.468287087E0,3.370562792E0,-8.481030464E0,1.137751579E0,9.196904366E0
4.473029118E0,3.045081615E0,-7.527468681E0,1.710484266E0,8.298256637E0
4.477771150E0,2.540449381E0,-6.686938763E0,2.284673452E0,7.509245359E0
4.482513129E0,1.927289128E0,-5.910601616E0,2.718671560E0,6.785339336E0
4.487255160E0,1.398136616E0,-5.089429855E0,2.848401308E0,5.997538850E0
4.491997139E0,8.615523577E-1,-4.083369732E0,3.670355082E0,5.557669229E0
4.496739171E0,1.182646230E-1,-2.996632576E0,5.067125797E0,5.888086036E0
4.501481202E0,-8.971587420E-1,-1.888836384E0,7.121097565E0,7.421767122E0
4.506223181E0,-2.397879362E0,-7.445545197E-1,9.756156921E0,1.007406496E1
4.510965212E0,-4.552973270E0,6.217765808E-1,1.374190712E1,1.448986484E1
4.515707191E0,-7.249439716E0,2.021701813E0,1.995299721E1,2.132519055E1
4.520449223E0,-9.977218628E0,3.070200920E0,2.834703445E1,3.020803515E1
4.525191254E0,-1.184030819E1,5.374835014E0,3.696406937E1,3.918448894E1
4.529933233E0,-3.847890139E0,2.052661133E1,4.227634430E1,4.715333836E1
4.534675264E0,1.144232750E1,5.371885300E1,4.558585739E1,7.137725422E1
4.539417243E0,1.567758465E1,6.850109863E1,4.513522720E1,8.351871592E1
4.544159275E0,1.092475986E1,6.943794250E1,4.121202087E1,8.148256809E1
4.548901306E0,-2.119077682E0,6.939069366E1,3.857030487E1,7.941805384E1
4.553643285E0,-1.135382938E1,6.694786072E1,3.044893646E1,7.441816464E1
4.558385316E0,-1.644143867E1,6.038968658E1,2.275327682E1,6.659539592E1
4.563127296E0,-1.964319611E1,5.283598328E1,1.633727455E1,5.868903494E1
4.567869327E0,-1.955230331E1,4.444775391E1,1.164165878E1,4.993419281E1
4.572611306E0,-1.758791733E1,3.567229843E1,8.395971298E0,4.064898579E1
4.577353337E0,-1.402728271E1,2.798265076E1,5.778922081E0,3.183063531E1
4.582095316E0,-1.030642223E1,2.174800682E1,3.230853081E0,2.428243298E1
4.586837348E0,-6.927714348E0,1.720088196E1,2.871983528E0,1.876464376E1
4.591579379E0,-4.208408833E0,1.482248592E1,6.091750622E0,1.656883277E1
4.596321358E0,-2.017854214E0,1.347409534E1,2.120033264E1,2.520073580E1
4.601063389E0,3.701500297E-1,1.211570644E1,2.855696106E1,3.102301369E1
4.605805368E0,1.219166040E0,8.671213150E0,1.611168671E1,1.833746852E1
4.610547400E0,1.011968851E0,5.514218330E0,5.684102058E0,7.983714734E0
4.615289379E0,-6.739770174E-1,3.003337860E0,-4.448487282E0,5.409558431E0
4.620031410E0,-2.798437357E0,1.464701653E0,-1.835679817E1,1.862655743E1
4.624773389E0,-4.819280624E0,1.149847031E0,-3.449177551E1,3.484580594E1
4.629515421E0,-5.850320816E0,1.602684975E0,-3.284112167E1,3.339661847E1
4.634257452E0,-6.612471581E0,2.216616631E0,-2.334871674E1,2.436802706E1
4.638999431E0,-5.056845093E1,-1.017575359E1,-2.081748247E0,5.162410160E1
4.643741462E0,-1.406497574E1,-1.465428352E0,-2.994554758E0,1.445470100E1
4.648483441E0,3.835000992E0,4.509696007E0,-3.315942764E0,6.785283126E0
4.653225473E0,7.803287506E0,6.122721672E0,-3.151627541E0,1.040729421E1
4.657967452E0,7.537914753E0,5.560272217E0,-3.068159580E0,9.856489698E0
4.662709483E0,8.802003860E0,1.251438141E0,-1.434405422E1,1.687581882E1
4.667451462E0,5.109622002E0,-1.870527267E-1,-4.993916512E0,7.147197202E0
4.672193493E0,2.929985523E0,-2.265202999E0,-2.943639994E0,4.730853645E0
4.676935473E0,4.947311878E0,-4.506195068E0,-5.889149666E0,8.914245487E0
4.681677504E0,-1.220494509E0,-1.536352539E1,1.286647606E1,2.007669608E1
4.686419483E0,4.255303383E0,-1.434225082E1,9.409783363E0,1.767347698E1
4.691161514E0,1.455918312E1,-1.484594631E1,4.851331329E1,5.278175349E1
4.695903493E0,-1.017556190E0,-1.883832169E1,-8.743301392E0,2.079334278E1
4.700645525E0,-6.938113213E0,-2.025926590E1,-2.000163269E1,2.930256951E1
4.705387556E0,-4.161761284E0,-2.141493225E1,-3.802406788E0,2.214447736E1
4.710129535E0,-2.714225054E0,-1.988402939E1,-5.677514076E0,2.085607366E1
4.714871566E0,-3.326466084E0,-1.800651169E1,-8.831705093E0,2.032975294E1
4.719613546E0,-3.901008606E0,-1.633349609E1,-1.069403076E1,1.990887382E1
4.724355577E0,-3.656545162E0,-1.520476913E1,-1.158510017E1,1.946201102E1
4.729097556E0,-2.346545935E0,-1.400228691E1,-1.298101234E1,1.923738543E1
4.733839587E0,1.649378538E-1,-1.310996056E1,-1.420768642E1,1.933278624E1
4.738581566E0,1.514872313E0,-1.323708439E1,-1.418153954E1,1.945845073E1
4.743323598E0,1.906375051E0,-1.382557201E1,-1.304756165E1,1.910548540E1
4.748065577E0,1.669667244E0,-1.460065651E1,-1.149031830E1,1.865460731E1
4.752807556E0,2.197843552E0,-1.426703835E1,-8.673081398E0,1.684046437E1
4.757549587E0,2.953814507E0,-1.283897209E1,-4.997717857E0,1.409047225E1
4.762291618E0,4.296774864E0,-1.108573246E1,-2.366317034E0,1.212250777E1
4.767033598E0,4.712547779E0,-1.003841591E1,-1.530206442E0,1.119461622E1
4.771775577E0,4.671369076E0,-9.433108330E0,-8.776193857E-1,1.056292751E1
4.776517608E0,4.471633434E0,-9.041663170E0,-9.207628965E-1,1.012891814E1
4.781259587E0,4.436228752E0,-8.573759079E0,-1.136323214E0,9.720118350E0
4.786001618E0,4.448164940E0,-8.086432457E0,-8.647227287E-2,9.229519959E0
4.790743598E0,4.178454399E0,-7.971547127E0,5.506745577E-1,9.017110803E0
4.795485629E0,3.836664677E0,-8.158804893E0,-8.990190029E-1,9.060592050E0
4.800227608E0,3.852077007E0,-8.611459732E0,-2.834254980E0,9.850316608E0
4.804969639E0,4.009200096E0,-9.271469116E0,-3.715933323E0,1.076299147E1
4.809711618E0,4.093800068E0,-9.932741165E0,-3.746208906E0,1.137772505E1
4.814453650E0,4.466368675E0,-1.006668186E1,-3.298547268E0,1.149638843E1
4.819195629E0,4.606805325E0,-9.819643974E0,-2.813211203E0,1.120545494E1
4.823937660E0,4.511943340E0,-9.368860245E0,-2.584434509E0,1.071505841E1
4.828679639E0,4.368000984E0,-8.788485527E0,-2.408623219E0,1.010536374E1
4.833421671E0,4.196113110E0,-8.511225700E0,-2.049038649E0,9.708083618E0
4.838163650E0,3.837509632E0,-8.409763336E0,-1.642477751E0,9.388734351E0
4.842905681E0,3.189871788E0,-8.041354179E0,-1.139708757E0,8.725685939E0
4.847647660E0,2.308771610E0,-7.592932701E0,-6.186870337E-1,7.960265510E0
4.852389691E0,1.130874515E0,-7.440287590E0,-4.158527851E-1,7.537220318E0
4.857131671E0,3.332192898E-1,-7.363042831E0,-7.339687347E-1,7.407033477E0
4.861873702E0,7.526671886E-2,-7.391955376E0,-1.258451819E0,7.498691242E0
4.866615681E0,3.166570663E-1,-7.469235420E0,-1.714758635E0,7.670081267E0
4.871357660E0,2.583820820E-1,-7.752528191E0,-2.026643753E0,8.017215199E0
4.876099691E0,3.071545362E-1,-8.162686348E0,-2.306337833E0,8.487814002E0
4.880841671E0,3.524471521E-1,-8.620640755E0,-2.592018604E0,9.008786070E0
4.885583702E0,4.870244265E-1,-8.863362312E0,-2.742139339E0,9.290624975E0
4.890325681E0,1.887705326E-1,-9.137545586E0,-2.823078632E0,9.565570898E0
4.895067712E0,-1.391625404E-2,-9.127760887E0,-2.709194899E0,9.521341790E0
4.899809691E0,-1.691007614E-1,-9.083402634E0,-2.106745005E0,9.326048091E0
4.904551723E0,-3.505241871E-2,-9.045617104E0,-1.266954184E0,9.133979985E0
4.909293702E0,-3.044331074E-2,-9.048373222E0,-4.816528559E-1,9.061234697E0
4.914035733E0,6.272625923E-2,-9.089747429E0,-1.796007156E-3,9.089964034E0
4.918777712E0,9.876465797E-2,-9.160567284E0,2.657091618E-1,9.164952197E0
4.923519691E0,4.297035933E-1,-9.163166046E0,5.475816727E-1,9.189564889E0
4.928261723E0,6.704480648E-1,-9.160066605E0,4.788463116E-1,9.197043797E0
4.933003702E0,8.638613224E-1,-9.091699600E0,2.131531239E-1,9.135135043E0
4.937745733E0,9.039450884E-1,-9.039588928E0,-2.209899426E-1,9.087360523E0
4.942487712E0,1.038898945E0,-8.946393967E0,-4.724050760E-1,9.018893645E0
4.947229743E0,1.399798989E0,-8.800136566E0,-5.038123131E-1,8.925002389E0
4.951971723E0,1.811327934E0,-8.629407883E0,-4.816563129E-1,8.830604854E0
4.956713754E0,2.311105728E0,-8.467436790E0,-6.061522961E-1,8.798074567E0
4.961455733E0,2.788895607E0,-8.311445236E0,-6.779516935E-1,8.793047203E0
4.966197764E0,2.952412605E0,-8.199355125E0,-9.883569479E-1,8.770576613E0
4.970939743E0,2.662034512E0,-8.181130409E0,-1.522374153E0,8.736987214E0
4.975681723E0,2.332616329E0,-8.168106079E0,-2.202796936E0,8.775612241E0
4.980423754E0,1.967227101E0,-8.169832230E0,-2.756123781E0,8.843775180E0
4.985165733E0,1.887447119E0,-8.114352226E0,-3.700933456E0,9.116034068E0
4.989907764E0,1.934729099E0,-8.102027893E0,-4.396596909E0,9.418922287E0
4.994649743E0,2.238779068E0,-8.147294998E0,-4.129276276E0,9.404332516E0
4.999391723E0,2.882320166E0,-7.939874172E0,-2.539405107E0,8.820314604E0
5.004133754E0,3.295050621E0,-7.753671646E0,-1.059744358E-1,8.425438456E0
5.008875733E0,3.725309849E0,-7.608552456E0,2.172677279E0,8.745772150E0
5.013617764E0,4.442558289E0,-7.461701870E0,3.655965567E0,9.422282270E0
5.018359743E0,5.220577240E0,-6.990143299E0,4.330879211E0,9.740279503E0
5.023101775E0,6.081625938E0,-6.669617653E0,4.637170792E0,1.014757738E1
5.027843754E0,6.623875141E0,-6.910490513E0,4.481799126E0,1.056963218E1
5.032585733E0,7.453330994E0,-8.020674706E0,2.658270121E0,1.126719866E1
5.037327764E0,8.577528000E0,-9.360902786E0,-9.457778931E-2,1.269682766E1
5.042069743E0,8.371090889E0,-1.015095806E1,-1.005114794E0,1.319573295E1
5.046811775E0,8.035329819E0,-1.031928062E1,-1.594594121E0,1.317561415E1
5.051553754E0,7.293468475E0,-9.440295219E0,-3.477019548E0,1.242592134E1
5.056295733E0,6.293696404E0,-7.203927994E0,-4.835763931E0,1.071875953E1
5.061037764E0,7.215660572E0,-3.332701206E0,-8.565953970E-1,7.994148516E0
5.065779743E0,7.299842358E0,-2.174701691E-1,2.139904022E0,7.610136723E0
5.070521775E0,4.568364143E0,9.651918411E-1,-4.315519810E0,6.358085991E0
5.075263754E0,5.046116352E0,6.306624413E0,5.358728409E0,9.692923804E0
5.080005785E0,9.161007881E0,1.782780457E1,2.445931053E1,3.162297508E1
5.084747764E0,1.384412479E1,3.538306427E1,1.779388618E1,4.195525490E1
5.089489743E0,2.240427589E1,6.436137390E1,1.630319595E1,7.007233568E1
5.094231775E0,1.982964897E1,6.917684174E1,1.059171772E1,7.273812546E1
5.098973754E0,-2.162041426E0,6.949539948E1,1.165107727E1,7.049845795E1
5.103715733E0,-4.218801117E1,6.953350067E1,1.895451355E1,8.351053578E1
5.108457764E0,-7.182323456E1,6.839965057E1,2.410342216E1,1.020689188E2
5.113199743E0,-7.504574585E1,5.559014893E1,2.174098396E1,9.588951461E1
5.117941775E0,-5.814456177E1,4.314490891E1,1.333323479E1,7.362097784E1
5.122683754E0,-3.474228287E1,3.656506348E1,8.228109360E0,5.110510610E1
5.127425785E0,-1.783473015E1,3.292031860E1,5.362763405E0,3.782306449E1
5.132167764E0,-2.608345270E0,3.003840256E1,6.068359375E0,3.075604134E1
5.136909743E0,7.843350410E0,2.643403435E1,8.526427269E0,2.886132844E1
5.141651775E0,1.119201469E1,2.405978775E1,4.747602940E0,2.695689732E1
5.146393754E0,1.314716434E1,2.051815033E1,4.732922554E0,2.482424176E1
5.151135733E0,1.240236855E1,1.664313889E1,6.973563194E0,2.189619604E1
5.155877764E0,7.741789818E0,1.490959644E1,8.229844093E0,1.870726355E1
5.160619743E0,7.616771460E-1,1.722034836E1,1.380209923E1,2.208208534E1
5.165361775E0,-4.233523369E0,2.088243103E1,1.749545288E1,2.756972102E1
5.170103754E0,-8.706374168E0,2.039408112E1,1.349746227E0,2.221578967E1
5.174845733E0,-1.056332111E1,1.629703903E1,-6.442876816E0,2.046186443E1
5.179587764E0,-1.019429016E1,1.212901306E1,-5.466008186E0,1.676048195E1
5.184329743E0,-8.784457207E0,8.623401642E0,-6.504039764E0,1.392236609E1
5.189071723E0,-6.662035942E0,6.195960045E0,-7.884972572E0,1.203932873E1
5.193813754E0,-3.986546755E0,4.721357346E0,-8.037486076E0,1.013829141E1
5.198555733E0,-1.628077984E0,3.765160561E0,-7.099673271E0,8.199538556E0
5.203297764E0,-8.295702934E-2,2.780143738E0,-5.773952484E0,6.408947524E0
5.208039743E0,2.923386097E-1,1.443321228E0,-4.354784489E0,4.597041002E0
5.212781723E0,6.131360531E-1,-4.443836212E-2,-3.093512058E0,3.154001814E0
5.217523754E0,9.836678505E-1,-1.542313576E0,-1.791584373E0,2.560489830E0
5.222265733E0,1.215400934E0,-3.113079071E0,-3.103640079E-1,3.356305491E0
5.227007712E0,1.737144232E0,-4.541764259E0,8.232572079E-1,4.931839930E0
5.231749743E0,2.250302792E0,-6.125189781E0,1.761557817E0,6.759060471E0
5.236491723E0,2.707186699E0,-7.911108971E0,2.198716164E0,8.645742174E0
5.241233754E0,3.014615774E0,-9.822844505E0,1.974727273E0,1.046306505E1
5.245975733E0,3.173588991E0,-1.169271851E1,1.346437335E0,1.219033333E1
5.250717712E0,3.769262552E0,-1.341275692E1,6.947609186E-1,1.394962656E1
5.255459743E0,4.417468548E0,-1.489186478E1,-1.238697767E-1,1.553373775E1
5.260201723E0,4.891905785E0,-1.592436409E1,-1.341811419E0,1.671276673E1
5.264943702E0,5.011531353E0,-1.641255569E1,-2.916342258E0,1.740667927E1
5.269685733E0,4.929592133E0,-1.675411034E1,-4.345066547E0,1.799668567E1
5.274427712E0,4.665156364E0,-1.721484566E1,-4.947812557E0,1.850933397E1
5.279169743E0,4.449896336E0,-1.775441360E1,-4.770411015E0,1.891500994E1
5.283911723E0,4.455318928E0,-1.841636658E1,-3.953112602E0,1.935560704E1
5.288653702E0,4.850408554E0,-1.917000198E1,-2.794312477E0,1.997056888E1
5.293395733E0,5.473954201E0,-1.979802513E1,-1.476322174E0,2.059382191E1
5.298137712E0,5.851413727E0,-2.025800514E1,-3.684920669E-1,2.108937176E1
5.302879743E0,6.147221088E0,-2.028519821E1,7.435971498E-1,2.120920862E1
5.307621723E0,5.826445580E0,-2.000768280E1,1.758118868E0,2.091281476E1
5.312363702E0,4.709781647E0,-1.950361633E1,2.491182089E0,2.021828582E1
5.317105681E0,3.172023773E0,-1.884181976E1,2.897360802E0,1.932538761E1
5.321847712E0,1.734137774E0,-1.799031448E1,3.378644943E0,1.838678576E1
5.326589691E0,1.114689827E0,-1.684213257E1,3.951993227E0,1.733546115E1
5.331331671E0,1.241773129E0,-1.521775055E1,4.195675850E0,1.583431805E1
5.336073702E0,1.326568365E0,-1.354248428E1,3.590923071E0,1.407314438E1
5.340815681E0,1.456349611E0,-1.201395607E1,2.553860426E0,1.236843958E1
5.345557712E0,1.833624959E0,-1.067875290E1,1.418966532E0,1.092755279E1
5.350299691E0,2.374251842E0,-9.301170349E0,5.446664095E-1,9.614858458E0
5.355041671E0,2.874526978E0,-8.195917130E0,-3.971427381E-1,8.694462910E0
5.359783702E0,3.278971195E0,-7.505376816E0,-1.420618296E0,8.312670425E0
5.364525681E0,3.629911423E0,-7.058744431E0,-2.278462410E0,8.257936838E0
5.369267712E0,3.941073895E0,-6.778698921E0,-2.756190538E0,8.311402336E0
5.374009691E0,4.400550365E0,-6.513978958E0,-2.954850435E0,8.398089454E0
5.378751671E0,4.753720284E0,-6.288113594E0,-3.030258417E0,8.445158091E0
5.383493702E0,5.042358398E0,-6.191692352E0,-3.085200310E0,8.560426003E0
5.388235681E0,4.975209236E0,-6.231695175E0,-3.088379622E0,8.551305186E0
5.392977660E0,4.559471130E0,-6.467927933E0,-3.228609800E0,8.546741483E0
5.397719691E0,3.971911430E0,-6.814279556E0,-3.300040483E0,8.549897863E0
5.402461671E0,3.326554298E0,-7.254168510E0,-3.326182842E0,8.645947986E0
5.407203650E0,2.777878523E0,-7.596471786E0,-3.191508770E0,8.695327534E0
5.411945681E0,2.614767551E0,-7.877211094E0,-2.856870651E0,8.777765882E0
5.416687660E0,2.777208567E0,-8.108241081E0,-2.544185400E0,8.940321035E0
5.421429691E0,2.718788624E0,-8.390247345E0,-2.175851345E0,9.084183572E0
5.426171671E0,2.646482468E0,-8.675769806E0,-1.506026030E0,9.194616119E0
5.430913650E0,2.805923700E0,-8.948332787E0,-6.859804392E-1,9.403001469E0
5.435655681E0,3.012487650E0,-9.234430313E0,2.168885469E-1,9.715802884E0
5.440397660E0,3.321446896E0,-9.464765549E0,1.056295156E0,1.008610707E1
5.445139639E0,3.771739006E0,-9.641705513E0,1.472580194E0,1.045738939E1
5.449881671E0,4.199390411E0,-9.714840889E0,1.342351913E0,1.066840766E1
5.454623650E0,4.524093628E0,-9.712759018E0,8.861175776E-1,1.075129366E1
5.459365629E0,4.573908806E0,-9.597327232E0,4.961459637E-1,1.064309601E1
5.464107660E0,4.393979073E0,-9.364190102E0,3.111100197E-1,1.034852153E1
5.468849639E0,4.244278431E0,-8.970808983E0,2.014806271E-1,9.926223232E0
5.473591671E0,4.236483574E0,-8.508465767E0,8.783626556E-2,9.505235294E0
5.478333650E0,4.130686283E0,-8.242869377E0,1.294577122E-2,9.219958369E0
5.483075629E0,3.835238695E0,-8.296063423E0,1.991765499E-1,9.141848580E0
5.487817660E0,3.262706518E0,-8.665532112E0,-6.085861921E-1,9.279389946E0
5.492559639E0,2.715439558E0,-9.013703346E0,-2.592191219E0,9.764216063E0
5.497301618E0,2.479978085E0,-9.388219833E0,-3.944238186E0,1.048074319E1
5.502043650E0,2.370108843E0,-9.695669174E0,-4.236487389E0,1.084302735E1
5.506785629E0,2.128293991E0,-9.876355171E0,-4.049273968E0,1.088433032E1
5.511527660E0,1.891775250E0,-9.990270615E0,-3.861836910E0,1.087649322E1
5.516269639E0,1.790630579E0,-9.984861374E0,-3.732466936E0,1.080902974E1
5.521011618E0,1.789396763E0,-9.893757820E0,-3.698502541E0,1.071295037E1
5.525753650E0,1.792926550E0,-9.638113976E0,-3.443647861E0,1.039069474E1
5.530495629E0,1.976780891E0,-9.409414291E0,-2.856933832E0,1.003029466E1
5.535237660E0,2.080567360E0,-9.169563293E0,-2.200450420E0,9.656688541E0
5.539979639E0,2.145151138E0,-8.899614334E0,-1.777349353E0,9.325437224E0
5.544721618E0,2.124911785E0,-8.456280708E0,-1.551465988E0,8.856126706E0
5.549463650E0,1.870921850E0,-7.954739571E0,-1.365244389E0,8.285054161E0
5.554205629E0,1.411313415E0,-7.476529121E0,-1.223975897E0,7.706387627E0
5.558947608E0,1.070865154E0,-7.091062069E0,-1.001427174E0,7.241047564E0
5.563689639E0,7.964943647E-1,-6.874688625E0,-7.868736982E-1,6.965265048E0
5.568431618E0,5.828465223E-1,-6.836703777E0,-9.111788273E-1,6.921739338E0
5.573173650E0,4.411945343E-1,-6.986374378E0,-1.370234966E0,7.133135596E0
5.577915629E0,3.976373672E-1,-7.199023724E0,-1.726593137E0,7.413850680E0
5.582657608E0,4.980115891E-1,-7.323876381E0,-1.470519662E0,7.486628671E0
5.587399639E0,7.167702913E-1,-7.246221542E0,-8.168343306E-1,7.327257646E0
5.592141618E0,9.231622219E-1,-6.980651855E0,-8.275938034E-2,7.041915786E0
5.596883598E0,1.196898937E0,-6.656558990E0,7.855745554E-1,6.808779042E0
5.601625629E0,1.471314311E0,-6.290933132E0,1.744146585E0,6.691984219E0
5.606367608E0,1.780429363E0,-5.898324966E0,2.866406679E0,6.795325848E0
5.611109639E0,2.005104303E0,-5.648693085E0,4.168491840E0,7.300993155E0
5.615851618E0,2.095504761E0,-5.561012268E0,5.304886341E0,7.966041472E0
5.620593598E0,1.975003242E0,-5.682698250E0,5.646726131E0,8.251012860E0
5.625335629E0,1.846483946E0,-5.831370831E0,5.260390759E0,8.067595655E0
5.630077608E0,1.670791149E0,-5.786509514E0,4.376027584E0,7.444786957E0
5.634819639E0,1.581274629E0,-5.399522781E0,3.211016893E0,6.478109694E0
5.639561618E0,1.167657137E0,-4.837958813E0,2.310413837E0,5.487010184E0
5.644303650E0,5.047336817E-1,-3.977809429E0,1.704926252E0,4.357120319E0
5.649045629E0,-3.719387054E-1,-2.762454510E0,1.200344920E0,3.034851108E0
5.653787608E0,-2.052191257E0,-8.751087189E-1,9.952790141E-1,2.442925407E0
5.658529639E0,-3.452684402E0,1.855012894E0,6.640142202E-1,3.975300907E0
5.663271618E0,-3.811162710E0,5.725982666E0,1.705064774E-1,6.880473178E0
5.668013650E0,-3.086773872E0,1.154825592E1,-9.927000999E-1,1.199482560E1
5.672755629E0,-2.009704113E-1,2.138134003E1,-2.940897226E0,2.158358096E1
5.677497660E0,7.350395203E0,4.055915451E1,-3.809225082E0,4.139545289E1
5.682239639E0,1.586659908E1,6.456152344E1,-5.375065804E0,6.669955478E1
5.686981618E0,1.786740303E1,6.885491943E1,-3.075723886E0,7.120185460E1
5.691723650E0,7.694475174E0,6.909465027E1,3.484683752E0,6.960904154E1
5.696465629E0,-1.467732239E1,6.908939362E1,1.289797974E1,7.179920601E1
5.701207660E0,-3.352509308E1,6.816294861E1,2.547443008E1,8.011907399E1
5.705949639E0,-4.180478287E1,5.493043137E1,3.431313705E1,7.708685708E1
5.710691618E0,-3.716264725E1,4.085637283E1,3.467086792E1,6.521023412E1
5.715433650E0,-2.625881386E1,3.182854843E1,2.902618027E1,5.044899346E1
5.720175629E0,-1.471956444E1,2.741621780E1,2.241374207E1,3.834958161E1
5.724917660E0,-5.731884003E0,2.606757545E1,1.714091492E1,3.172040272E1
5.729659639E0,1.430416107E-2,2.645067978E1,1.286510754E1,2.941342648E1
5.734401671E0,2.624437809E0,2.759148979E1,8.962454796E0,2.912908476E1
5.739143650E0,2.807996750E0,2.863747787E1,4.070169449E0,2.906125022E1
5.743885681E0,1.265700102E0,2.873450089E1,-3.293587685E0,2.895032397E1
5.748627660E0,-8.390104771E-1,2.753556824E1,-1.658124352E1,3.215352381E1
5.753369639E0,-4.008907318E0,2.483152199E1,-3.327913284E1,4.171542287E1
5.758111671E0,-5.348849773E0,2.230517960E1,-1.719072914E1,2.866447975E1
5.762853650E0,-4.803980827E0,2.064535141E1,-5.324991226E0,2.185553244E1
5.767595681E0,-3.133708477E0,1.934207153E1,5.729849815E0,2.041487298E1
5.772337660E0,-2.232170105E0,1.846830750E1,1.572509384E1,2.435856197E1
5.777079691E0,-3.590116739E0,1.545551395E1,1.717677116E1,2.338382598E1
5.781821671E0,-5.760764122E0,1.042168522E1,1.342441559E1,1.794471677E1
5.786563702E0,-6.434532166E0,5.116938591E0,8.088565826E0,1.153304651E1
5.791305681E0,-5.894727707E0,3.707370758E-1,2.591012239E0,6.449698066E0
5.796047712E0,-4.547296524E0,-3.189164639E0,-2.918002605E0,6.274027094E0
5.800789691E0,-3.059473991E0,-5.305413723E0,-7.024256229E0,9.319225904E0
5.805531671E0,-1.457338572E0,-6.657516479E0,-9.333579063E0,1.155690527E1
5.810273702E0,3.021376133E-1,-7.391908646E0,-9.611087799E0,1.212866890E1
5.815015681E0,2.033537149E0,-7.973384857E0,-9.025053024E0,1.221317819E1
5.819757712E0,3.245997429E0,-8.806854248E0,-7.692414284E0,1.213550240E1
5.824499691E0,4.138689518E0,-1.000525570E1,-5.669890404E0,1.222217451E1
5.829241723E0,4.891127586E0,-1.125317287E1,-3.165753365E0,1.267197787E1
5.833983702E0,5.743169785E0,-1.229719639E1,-1.252719641E0,1.362990626E1
5.838725733E0,5.976703167E0,-1.349658298E1,-7.386946678E-1,1.477918817E1
5.843467712E0,5.822815418E0,-1.482783604E1,4.971049726E-2,1.593023453E1
5.848209743E0,4.956891060E0,-1.620075226E1,3.278955817E-1,1.694528425E1
5.852951723E0,4.275278091E0,-1.741481781E1,-3.147607744E-1,1.793468585E1
5.857693754E0,3.645427942E0,-1.847997665E1,-2.118469238E0,1.895485674E1
5.862435733E0,2.770216227E0,-1.907122040E1,-4.415250778E0,1.977068499E1
5.867177764E0,2.317206383E0,-1.935853767E1,-6.554973602E0,2.056915422E1
5.871919743E0,2.150022507E0,-1.922215271E1,-8.157247543E0,2.099177075E1
5.876661775E0,1.873600245E0,-1.915945435E1,-9.245073318E0,2.135571234E1
5.881403754E0,1.267168999E0,-1.900989914E1,-9.674608231E0,2.136773331E1
5.886145785E0,1.524942398E0,-1.867248344E1,-9.445531845E0,2.098106668E1
5.890887764E0,2.529417515E0,-1.816061401E1,-8.381875038E0,2.016089491E1
5.895629796E0,3.640505791E0,-1.723704910E1,-6.340399265E0,1.872350947E1
5.900371775E0,4.462078094E0,-1.629266739E1,-2.522021294E0,1.707986367E1
5.905113806E0,4.928499222E0,-1.570504856E1,2.022257805E0,1.658397363E1
5.909855785E0,5.094994545E0,-1.501055527E1,5.457314491E0,1.676478513E1
5.914597816E0,5.398383617E0,-1.415448570E1,7.441709518E0,1.687812347E1
5.919339796E0,5.735095978E0,-1.318621254E1,7.831149578E0,1.637358943E1
5.924081827E0,6.048250198E0,-1.219898319E1,6.126025677E0,1.493066348E1
5.928823806E0,6.066426277E0,-1.119667149E1,3.446886063E0,1.319272541E1
5.933565837E0,5.884795666E0,-1.032180500E1,1.330344439E0,1.195576408E1
5.938307816E0,5.677735329E0,-9.554323196E0,-1.454677582E-1,1.111498678E1
5.943049848E0,4.966353416E0,-8.989446640E0,-1.146816611E0,1.033392498E1
5.947791827E0,4.001811028E0,-8.564643860E0,-1.800059199E0,9.623296164E0
5.952533858E0,2.987290382E0,-8.238978386E0,-2.178471804E0,9.030526456E0
5.957275837E0,2.202684164E0,-7.980931759E0,-2.503728390E0,8.649609535E0
5.962017868E0,1.688779354E0,-7.687098503E0,-2.878285408E0,8.380213959E0
5.966759848E0,1.477535605E0,-7.301813126E0,-3.045380592E0,8.048225229E0
5.971501879E0,1.580380440E0,-6.821750164E0,-3.147928715E0,7.677456143E0
5.976243910E0,2.035266638E0,-6.528040886E0,-3.853061914E0,7.848803362E0
5.980985889E0,2.631406307E0,-6.259292603E0,-4.348531246E0,8.063049487E0
5.985727921E0,3.215343714E0,-6.050678253E0,-4.632499218E0,8.270984919E0
5.990469900E0,3.688285828E0,-5.820430279E0,-4.523167133E0,8.242566463E0
5.995211931E0,4.223759174E0,-5.527695656E0,-4.304954529E0,8.180965366E0
5.999953910E0,4.794306755E0,-5.239232063E0,-3.881678581E0,8.093352734E0
6.004695941E0,5.389288902E0,-4.954753399E0,-3.434350729E0,8.086332979E0
6.009437921E0,5.921399593E0,-4.681129932E0,-3.141919136E0,8.176038555E0
6.014179952E0,6.365184784E0,-4.456376553E0,-3.054430008E0,8.348916815E0
6.018921983E0,6.440898895E0,-4.414315701E0,-3.186347961E0,8.433514986E0
6.023663962E0,6.084997654E0,-4.878011703E0,-3.334708452E0,8.481891009E0
6.028405993E0,5.165582657E0,-5.345591068E0,-3.754190445E0,8.327816878E0
6.033147973E0,4.177246571E0,-5.825237274E0,-3.875616789E0,8.148814865E0
6.037890004E0,3.655844450E0,-6.269768715E0,-3.768421173E0,8.177786774E0
6.042631983E0,3.530527115E0,-6.681955814E0,-3.326322317E0,8.256971320E0
6.047374014E0,3.628337145E0,-7.179191113E0,-2.710634232E0,8.488412891E0
6.052116046E0,3.781102657E0,-7.754415989E0,-2.051958084E0,8.867820285E0
6.056858025E0,3.693287134E0,-8.580342293E0,-1.267282248E0,9.427016920E0
6.061600056E0,3.873877764E0,-9.398894310E0,-4.169204831E-1,1.017447620E1
6.066342035E0,4.158254147E0,-9.980587006E0,-5.990743637E-3,1.081217973E1
6.071084066E0,4.422871590E0,-1.045952225E1,-1.475858688E-1,1.135716427E1
6.075826098E0,4.556077003E0,-1.084291840E1,-6.706795692E-1,1.178034499E1
6.080568077E0,4.326242447E0,-1.124581528E1,-1.272885680E0,1.211631020E1
6.085310108E0,4.011406422E0,-1.150579071E1,-1.826405764E0,1.232113466E1
6.090052087E0,3.777352333E0,-1.150594521E1,-2.248833656E0,1.231715952E1
6.094794118E0,3.504905939E0,-1.126109982E1,-2.419733286E0,1.203959484E1
6.099536150E0,3.184643269E0,-1.081951904E1,-2.604557037E0,1.157530399E1
6.104278129E0,2.763652325E0,-1.029635334E1,-2.834841013E0,1.103127326E1
6.109020160E0,2.291380882E0,-9.737318993E0,-3.082838535E0,1.046755468E1
6.113762139E0,1.929699540E0,-9.188005447E0,-3.213250637E0,9.923112620E0
6.118504171E0,1.668525815E0,-8.665082932E0,-3.267900229E0,9.409931589E0
6.123246202E0,1.538834214E0,-8.232950211E0,-3.285738468E0,8.996974891E0
6.127988181E0,1.351932406E0,-7.874515533E0,-3.353404045E0,8.664931322E0
6.132730212E0,1.074785233E0,-7.596634865E0,-3.487964153E0,8.427924923E0
6.137472243E0,6.553094387E-1,-7.370302677E0,-3.558098793E0,8.210411624E0
6.142214223E0,6.250405312E-2,-7.126090050E0,-3.609543324E0,7.988358352E0
6.146956254E0,-5.814321041E-1,-6.835337639E0,-3.407824278E0,7.659841398E0
6.151698285E0,-9.318361282E-1,-6.753935337E0,-2.971966267E0,7.437509301E0
6.156440264E0,-1.203690290E0,-6.867226601E0,-2.356498241E0,7.359399124E0
6.161182296E0,-1.525866985E0,-7.033940792E0,-1.606251717E0,7.374594070E0
6.165924275E0,-1.869570971E0,-7.201516628E0,-8.833335638E-1,7.492490610E0
6.170666306E0,-2.105952263E0,-7.367612362E0,-2.093453407E-1,7.665544490E0
6.175408337E0,-2.393429041E0,-7.616038799E0,8.079177141E-1,8.024043906E0
6.180150316E0,-2.667803764E0,-7.899102688E0,2.931432247E0,8.837776599E0
6.184892348E0,-2.528575420E0,-8.525297165E0,2.875619888E0,9.345778467E0
6.189634379E0,-1.827033520E0,-8.932279587E0,2.159642935E0,9.369510537E0
6.194376358E0,-6.652522087E-1,-9.402271271E0,1.731446981E0,9.583484450E0
6.199118389E0,4.745266438E-1,-9.801144600E0,1.641247749E0,9.948934877E0
6.203860421E0,1.250733852E0,-1.031084633E1,1.489583969E0,1.049269973E1
6.208602400E0,1.934222341E0,-1.070169353E1,1.517669439E0,1.098047272E1
6.213344431E0,2.854483128E0,-1.132966709E1,1.842659593E0,1.182813699E1
6.218086462E0,3.833415508E0,-1.193321609E1,2.306776047E0,1.274432958E1
6.222828441E0,5.006513596E0,-1.201661205E1,3.336135387E0,1.343852458E1
6.227570473E0,5.346192360E0,-1.216131306E1,5.142269135E0,1.424507774E1
6.232312504E0,4.566653252E0,-1.254691887E1,6.755779266E0,1.496395832E1
6.237054535E0,3.880015373E0,-1.289123917E1,7.459388733E0,1.539094041E1
6.241796514E0,4.082237720E0,-1.281373787E1,7.266885281E0,1.528607748E1
6.246538546E0,4.740849972E0,-1.182609558E1,6.384158611E0,1.425095352E1
6.251280577E0,6.164932251E0,-9.203542709E0,5.181987286E0,1.222965986E1
6.256022556E0,7.140708923E0,-6.518013954E0,4.228415012E0,1.055242737E1
6.260764587E0,7.712357521E0,-3.579690456E0,3.608159065E0,9.236528251E0
6.265506618E0,8.607623100E0,-1.467514038E-2,3.355508327E0,9.238551127E0
6.270248598E0,1.034066296E1,5.124829292E0,4.050488949E0,1.223109343E1
6.274990629E0,1.413670731E1,1.346632385E1,4.673152924E0,2.007552564E1
6.279732660E0,2.147244072E1,2.795657730E1,4.907128811E0,3.559095163E1
6.284474691E0,3.069002724E1,4.878105927E1,3.431542873E0,5.773426194E1
6.289216671E0,3.158882141E1,6.654242706E1,3.469099998E-1,7.366049541E1
6.293958702E0,1.343326473E1,6.950225067E1,-6.858363152E-1,7.079184855E1
6.298700733E0,-2.140797424E1,6.624090576E1,2.938790798E0,6.967636219E1
6.303442764E0,-5.351674652E1,6.052918243E1,7.648799896E0,8.115619646E1
6.308184743E0,-7.302241516E1,5.659561920E1,1.273466301E1,9.326043572E1
6.312926775E0,-7.429275513E1,5.158159637E1,1.635395813E1,9.191042648E1
6.317668806E0,-5.151726913E1,4.362150574E1,1.353976059E1,6.884903702E1
6.322410837E0,-2.960197639E1,3.609635925E1,7.908767700E0,4.734736280E1
6.327152816E0,-1.609937286E1,3.040829468E1,-1.644840002E0,3.444647573E1
6.331894848E0,-6.413316727E0,2.571097946E1,-8.631162643E0,2.786901622E1
6.336636879E0,-5.283808708E-2,2.296886253E1,-9.973054886E0,2.504063221E1
6.341378910E0,3.575580359E0,2.190142059E1,-5.996000290E0,2.298714898E1
6.346120889E0,7.101952553E0,2.265759087E1,-6.819643974E-1,2.375435180E1
6.350862921E0,1.223090839E1,2.452556419E1,5.515911102E0,2.795574529E1
6.355604952E0,1.574948406E1,2.552981567E1,1.030277824E1,3.171695093E1
6.360346983E0,1.684933662E1,2.593589783E1,1.315507889E1,3.360992474E1
6.365088962E0,1.746829796E1,2.611081505E1,1.543751049E1,3.500332593E1
6.369830993E0,1.625623703E1,2.553665543E1,1.809179878E1,3.526611966E1
6.374573025E0,1.417079067E1,2.489459419E1,2.050722122E1,3.522922438E1
6.379315056E0,1.087233353E1,2.315736771E1,2.528914261E1,3.597237898E1
6.384057035E0,6.566293716E0,2.033962250E1,2.829596329E1,3.546093618E1
6.388799066E0,3.821744442E0,1.795247269E1,2.390378380E1,3.013781488E1
6.393541098E0,8.635559082E-1,1.472572994E1,2.135775566E1,2.595662879E1
6.398283129E0,-1.361852646E0,1.174569798E1,1.373325920E1,1.812231971E1
6.403025160E0,-4.377730370E0,9.523556709E0,-5.023276329E0,1.162307879E1
6.407767139E0,-5.987740517E0,8.821708679E0,-1.440913773E1,1.792481047E1
6.412509171E0,-5.627422333E0,8.481596947E0,-1.729024696E1,2.006384831E1
6.417251202E0,-4.377694130E0,7.876584053E0,-1.623879433E1,1.857157030E1
6.421993233E0,-2.382997513E0,6.839409828E0,-1.225193119E1,1.423256905E1
6.426735264E0,3.107795715E-1,5.493515015E0,-7.565996170E0,9.355190495E0
6.431477243E0,2.091441870E0,4.137098312E0,-3.563723087E0,5.847207349E0
6.436219275E0,2.461882114E0,2.389159203E0,-1.169514537E0,3.624459890E0
6.440961306E0,2.129035950E0,4.459199905E-1,1.797127724E-2,2.175307261E0
6.445703337E0,1.330926418E0,-1.520833969E0,8.488066196E-1,2.191979418E0
6.450445368E0,6.463861465E-2,-2.995456696E0,1.927550316E0,3.562637953E0
6.455187348E0,-1.562021971E0,-4.589276791E0,1.833132386E0,5.182832087E0
6.459929379E0,-1.964332819E0,-6.640037537E0,2.605569839E0,7.398492826E0
6.464671410E0,-2.498052359E0,-8.121507645E0,1.738583207E0,8.673051572E0
6.469413441E0,-2.494916439E0,-9.172719955E0,-1.616058469E0,9.642356786E0
6.474155473E0,-3.034842253E0,-1.074438095E1,-9.211392403E-1,1.120269999E1
6.478897504E0,-2.967938185E0,-1.236592579E1,1.510733366E-1,1.271800302E1
6.483639483E0,-3.076452017E0,-1.383026123E1,1.915637255E-1,1.416959348E1
6.488381514E0,-2.835506439E0,-1.523631859E1,2.386242151E-1,1.549975620E1
6.493123546E0,-2.504305840E0,-1.640750504E1,-4.934448004E-1,1.660485643E1
6.497865577E0,-2.022977114E0,-1.757127380E1,-1.483549833E0,1.774945125E1
6.502607608E0,-1.776359797E0,-1.832118607E1,-2.248675823E0,1.854394392E1
6.507349639E0,-1.351874113E0,-1.895159340E1,-3.193266153E0,1.926622445E1
6.512091671E0,-4.804244041E-1,-1.927567101E1,-3.546627522E0,1.960512349E1
6.516833650E0,4.062035084E-1,-1.962332535E1,-4.078195095E0,2.004673475E1
6.521575681E0,1.079814196E0,-1.975269127E1,-4.577844620E0,2.030496177E1
6.526317712E0,1.347801208E0,-1.953741074E1,-4.415635109E0,2.007547807E1
6.531059743E0,1.811726570E0,-1.909993744E1,-4.308480740E0,1.966349332E1
6.535801775E0,2.452693462E0,-1.861279678E1,-3.876193523E0,1.916968402E1
6.540543806E0,3.038591385E0,-1.813365746E1,-2.942797661E0,1.862048948E1
6.545285837E0,3.296338558E0,-1.788524437E1,-1.720856667E0,1.826770817E1
6.550027868E0,3.687325478E0,-1.796315002E1,-4.736308455E-1,1.834381242E1
6.554769848E0,3.725091934E0,-1.835058784E1,6.719135046E-1,1.873691148E1
6.559511879E0,3.231509209E0,-1.892590714E1,1.615281940E0,1.926763474E1
6.564253910E0,2.456677914E0,-1.943129349E1,1.997659802E0,1.968758689E1
6.568995941E0,1.631742954E0,-1.965208054E1,1.838623285E0,1.980523643E1
6.573737973E0,9.524230957E-1,-1.940468407E1,1.512088537E0,1.948679772E1
6.578480004E0,4.807887077E-1,-1.855811691E1,1.209871650E0,1.860372679E1
6.583222035E0,4.685661793E-1,-1.694766235E1,1.276409507E0,1.700211854E1
6.587964066E0,1.142003059E0,-1.482669258E1,1.679696083E0,1.496517166E1
6.592706098E0,1.923595428E0,-1.290968609E1,2.133426428E0,1.322541956E1
6.597448129E0,2.862789154E0,-1.121215057E1,2.408642054E0,1.181987474E1
6.602190160E0,3.661684513E0,-9.764186859E0,2.431795359E0,1.070798334E1
6.606932139E0,3.822705746E0,-8.663558960E0,2.323396683E0,9.750307955E0
6.611674171E0,3.214790344E0,-7.145253181E0,4.847576141E0,9.213496320E0
6.616416202E0,3.192031860E0,-6.240201950E0,4.378740311E0,8.264535951E0
6.621158233E0,4.039893150E0,-5.842019081E0,8.412833214E-1,7.152459803E0
6.625900264E0,4.227046490E0,-5.655927658E0,7.888972759E-2,7.061420770E0
6.630642296E0,4.376701832E0,-5.707849503E0,-3.235253990E-1,7.199981497E0
6.635384327E0,4.633383751E0,-5.925496101E0,-1.048901081E0,7.594731233E0
6.640126358E0,4.820829868E0,-6.236698151E0,-1.832718730E0,8.092939045E0
6.644868389E0,4.860527992E0,-6.471529961E0,-2.310286522E0,8.416819839E0
6.649610421E0,4.934527397E0,-6.587054253E0,-2.684115410E0,8.656980992E0
6.654352452E0,4.877375126E0,-6.645816803E0,-2.627904177E0,8.652256900E0
6.659094483E0,4.786440849E0,-6.717460632E0,-3.099329710E0,8.811364140E0
6.663836514E0,4.797514439E0,-6.735097408E0,-3.479272366E0,8.971232807E0
6.668578546E0,4.958304405E0,-6.732174873E0,-3.645874023E0,9.121368236E0
6.673320577E0,5.206763268E0,-6.727645397E0,-3.639734745E0,9.253067887E0
6.678062608E0,5.473788738E0,-6.675861359E0,-3.546703339E0,9.333198412E0
6.682804639E0,5.699790001E0,-6.603035450E0,-3.423648119E0,9.370648305E0
6.687546671E0,5.781861305E0,-6.607215405E0,-3.265238762E0,9.367336853E0
6.692288702E0,5.614409447E0,-6.721930504E0,-3.271876335E0,9.349391311E0
6.697030733E0,5.259147167E0,-6.763203621E0,-3.308709621E0,9.184068352E0
6.701772764E0,4.626896858E0,-6.851111412E0,-3.257370710E0,8.885739477E0
6.706514796E0,3.853487730E0,-6.954973698E0,-3.130888462E0,8.545378247E0
6.711256827E0,3.244748831E0,-7.029701233E0,-3.155061722E0,8.360592615E0
6.715998858E0,2.860148430E0,-7.049277782E0,-3.326148033E0,8.302772250E0
6.720740889E0,2.687702894E0,-7.042593002E0,-3.848562241E0,8.463645454E0
6.725482921E0,2.669927120E0,-7.007513046E0,-4.517482281E0,8.754507186E0
6.730224952E0,2.601203203E0,-7.102593422E0,-4.212649822E0,8.657916028E0
6.734966983E0,2.355869770E0,-7.003816605E0,-2.997036934E0,7.974070465E0
6.739709014E0,2.344806194E0,-6.844144821E0,-2.073734999E0,7.526008987E0
6.744451046E0,2.353460312E0,-7.107561111E0,-8.849576116E-1,7.539187646E0
6.749193077E0,2.540880680E0,-7.186510563E0,-6.685999632E-1,7.651734092E0
6.753935108E0,2.901635885E0,-7.449312687E0,-6.288260221E-1,8.019175300E0
6.758677139E0,3.376230240E0,-7.952343941E0,-1.071519852E0,8.705564863E0
6.763419171E0,3.829050779E0,-8.450091362E0,-2.361289740E0,9.572949552E0
6.768161202E0,3.734674454E0,-9.175713539E0,-3.637928963E0,1.055348470E1
6.772903233E0,3.397894859E0,-9.850581169E0,-4.720998287E0,1.143973180E1
6.777645264E0,3.072929382E0,-1.011773777E1,-5.635038853E0,1.198186861E1
6.782387296E0,2.530304909E0,-1.023812103E1,-5.654369354E0,1.196634689E1
6.787129327E0,2.334552288E0,-9.991958618E0,-5.507152557E0,1.164551848E1
6.791871358E0,2.248543262E0,-9.571170807E0,-4.951289177E0,1.100811164E1
6.796613389E0,2.228883505E0,-9.217857361E0,-4.162723541E0,1.035688579E1
6.801355421E0,2.248796940E0,-8.949108124E0,-3.314733505E0,9.804645945E0
6.806097452E0,2.286285400E0,-8.705437660E0,-2.499218464E0,9.341190434E0
6.810839483E0,2.338802099E0,-8.570589066E0,-1.959678411E0,9.097545365E0
6.815581514E0,2.410739422E0,-8.393881798E0,-1.595393062E0,8.877735929E0
6.820323546E0,2.297573090E0,-8.403052330E0,-8.651775122E-1,8.754351072E0
6.825065629E0,2.402043819E0,-8.541095734E0,2.501510382E-1,8.875962279E0
6.829807660E0,2.957576513E0,-8.487442017E0,8.453766108E-1,9.027657084E0
6.834549691E0,3.410671473E0,-8.249320030E0,1.308890581E0,9.022037209E0
6.839291723E0,4.261576653E0,-7.783135891E0,9.962184429E-1,8.929204391E0
6.844033754E0,4.522882462E0,-7.200633049E0,1.786708832E-1,8.505145816E0
6.848775785E0,3.822381258E0,-6.408144951E0,-6.137362123E-1,7.486761138E0
6.853517816E0,1.983729362E0,-5.369998932E0,-1.155716181E0,5.840184124E0
6.858259848E0,8.788406849E-1,-3.930850983E0,-1.444668055E0,4.279137318E0
6.863001879E0,1.922399998E-1,-2.523571968E0,-1.485224605E0,2.934495497E0
6.867743910E0,-9.135859013E-1,-1.348756313E0,-1.132410169E0,1.983969652E0
6.872485941E0,-1.891368866E0,-9.994602203E-2,-5.716256499E-1,1.978388556E0
6.877228025E0,-2.055080414E0,1.457692146E0,1.759794950E-1,2.525705977E0
6.881970056E0,-8.127424717E-1,3.279819489E0,1.328155637E0,3.630669855E0
6.886712087E0,8.625534773E-1,5.743376732E0,2.790399551E0,6.443345749E0
6.891454118E0,3.452927589E0,1.029870129E1,4.724058628E0,1.184494352E1
6.896196150E0,7.495763779E0,1.839266586E1,7.613314629E0,2.127061804E1
6.900938181E0,1.365593338E1,3.009215355E1,1.031432819E1,3.461802403E1
6.905680212E0,2.009271812E1,4.405619812E1,1.209687424E1,4.990992167E1
6.910422243E0,2.173917389E1,5.680546188E1,1.427198029E1,6.247512787E1
6.915164327E0,1.505503654E1,6.113579559E1,1.605566025E1,6.497710254E1
6.919906358E0,1.528215408E-2,5.569081497E1,1.981332970E1,5.911036406E1
6.924648389E0,-1.272537041E1,4.864372635E1,2.486777878E1,5.609414931E1
6.929390421E0,-1.965184784E1,4.176051712E1,2.816065216E1,5.406623941E1
6.934132452E0,-2.145557594E1,3.521421051E1,2.946529579E1,5.068121957E1
6.938874483E0,-2.063909912E1,2.976290703E1,2.946523285E1,4.669050218E1
6.943616514E0,-1.779812622E1,2.641056061E1,2.702232361E1,4.176717589E1
6.948358598E0,-1.310276794E1,2.552263451E1,2.194598389E1,3.612081960E1
6.953100629E0,-8.221674919E0,2.612385368E1,1.675959969E1,3.210818979E1
6.957842660E0,-4.792053223E0,2.680839539E1,1.256899166E1,2.999388919E1
6.962584691E0,-2.890971184E0,2.723439598E1,9.706185341E0,2.905649794E1
6.967326723E0,-2.410400629E0,2.738174629E1,7.921923637E0,2.860641423E1
6.972068754E0,-2.860505581E0,2.725560760E1,7.043438911E0,2.829594794E1
6.976810837E0,-3.688256741E0,2.682961273E1,6.320030689E0,2.780960527E1
6.981552868E0,-4.182760239E0,2.608742905E1,5.192783833E0,2.692609220E1
6.986294900E0,-4.187651634E0,2.488849258E1,4.146599770E0,2.557670383E1
6.991036931E0,-3.852185726E0,2.306800652E1,3.645849466E0,2.366990659E1
6.995778962E0,-3.403832674E0,2.107819366E1,3.516531229E0,2.163890748E1
7.000520993E0,-2.897268057E0,1.920802879E1,3.621143341E0,1.975993956E1
7.005263077E0,-2.348016739E0,1.768156242E1,4.136174202E0,1.831007289E1
7.010005108E0,-1.943182945E0,1.637814140E1,4.994609833E0,1.723268996E1
7.014747139E0,-1.283469439E0,1.525601768E1,6.008145332E0,1.644661606E1
7.019489171E0,-5.380558968E-2,1.448869801E1,7.201517105E0,1.617983664E1
7.024231202E0,1.220917940E0,1.420379162E1,8.791176796E0,1.674882463E1
7.028973285E0,1.957241535E0,1.400709534E1,1.041681290E1,1.756529263E1
7.033715316E0,2.300119877E0,1.341859055E1,1.212949657E1,1.823386440E1
7.038457348E0,2.468784332E0,1.271949959E1,1.366235447E1,1.882924575E1
7.043199379E0,1.916623235E0,1.160333157E1,1.472771263E1,1.884718195E1
7.047941462E0,1.458058119E0,1.028442287E1,1.505660534E1,1.829198326E1
7.052683493E0,1.352229357E0,8.980575562E0,1.386490059E1,1.657452051E1
7.057425525E0,1.619348764E0,7.773602486E0,1.184931564E1,1.426385177E1
7.062167556E0,1.573220849E0,6.130501747E0,9.365544319E0,1.130360544E1
7.066909587E0,1.579534531E0,3.963513374E0,6.260339737E0,7.576029384E0
7.071651671E0,1.704773903E0,1.318656921E0,3.099427223E0,3.775123739E0
7.076393702E0,1.533957720E0,-1.354869843E0,4.159121513E-1,2.088463908E0
7.081135733E0,5.240678787E-1,-4.254160404E0,-6.740229607E0,7.987691972E0
7.085877764E0,-5.537564754E-1,-6.838490009E0,-1.315753651E1,1.483887997E1
7.090619848E0,-5.352210999E-1,-8.512083054E0,-1.224381828E1,1.492156512E1
7.095361879E0,-4.314160347E-1,-1.000694180E1,-1.152959442E1,1.527273883E1
7.100103910E0,-8.039188385E-2,-1.147755241E1,-1.006078720E1,1.526303087E1
7.104845941E0,4.090294838E-1,-1.290096664E1,-8.780937195E0,1.561112115E1
7.109588025E0,8.083198071E-1,-1.438072395E1,-8.305216789E0,1.662634140E1
7.114330056E0,9.408326149E-1,-1.586249542E1,-8.203989983E0,1.788321500E1
7.119072087E0,8.469152451E-1,-1.725381660E1,-8.276360512E0,1.915488439E1
7.123814118E0,5.217723846E-1,-1.847182655E1,-8.376848221E0,2.028921410E1
7.128556202E0,7.132284641E-1,-2.024860191E1,-6.547756195E0,2.129290223E1
7.133298233E0,2.449259281E0,-2.472034073E1,-2.651759386E-1,2.484279443E1
7.138040264E0,3.589657784E0,-3.155332947E1,6.626691818E0,3.244088914E1
7.142782348E0,4.107549191E0,-3.668399429E1,6.526592255E0,3.748578136E1
7.147524379E0,4.327932835E0,-3.728739548E1,1.075053930E0,3.755311712E1
7.152266410E0,3.047021627E0,-3.409209061E1,-3.258468628E0,3.438273696E1
7.157008441E0,3.581385612E-1,-2.856170654E1,-4.510871887E0,2.891794095E1
7.161750525E0,-2.106868267E0,-2.278446579E1,-3.978769064E0,2.322501622E1
7.166492556E0,-3.288516521E0,-1.817019272E1,-3.083704472E0,1.872109713E1
7.171234587E0,-3.585239887E0,-1.476787376E1,-2.100635052E0,1.534133984E1
7.175976671E0,-3.240702152E0,-1.238908768E1,-1.300699592E0,1.287180886E1
7.180718702E0,-3.098425865E0,-1.090773582E1,-7.707529068E-1,1.136543020E1
7.185460733E0,-2.187490940E0,-1.001801586E1,-7.688021660E-2,1.025434878E1
7.190202816E0,-1.690947533E0,-9.615662575E0,6.613021493E-1,9.785580762E0
7.194944848E0,-1.193522453E0,-9.448393822E0,1.430767298E0,9.630354963E0
7.199686879E0,-5.959167480E-1,-9.232994080E0,2.138341427E0,9.496093960E0
7.204428962E0,-2.659249306E-2,-8.858920097E0,2.601399660E0,9.233008862E0
7.209170993E0,4.458804131E-1,-8.495544434E0,2.823573112E0,8.963573489E0
7.213913025E0,8.125393391E-1,-8.154356956E0,2.829756021E0,8.669560352E0
7.218655108E0,1.198489904E0,-7.913721085E0,2.497714520E0,8.384625053E0
7.223397139E0,1.410890341E0,-7.720361710E0,2.309366465E0,8.180939429E0
7.228139171E0,1.893947005E0,-7.834181786E0,2.181081295E0,8.349763777E0
7.232881202E0,2.316762447E0,-7.988834381E0,1.968207359E0,8.547672386E0
7.237623285E0,2.491767406E0,-8.246126175E0,1.516767502E0,8.746890039E0
7.242365316E0,2.477646828E0,-8.586570740E0,8.169518709E-1,8.974148496E0
7.247107400E0,2.394948721E0,-8.928637505E0,-8.253005147E-2,9.244628617E0
7.251849431E0,2.284986496E0,-9.140780449E0,-8.700293899E-1,9.462134096E0
7.256591462E0,2.301441669E0,-9.232697487E0,-1.517902613E0,9.635526191E0
7.261333546E0,2.372847557E0,-9.173489571E0,-1.863908172E0,9.656990737E0
7.266075577E0,2.561800003E0,-9.023107529E0,-2.267661572E0,9.649952214E0
7.270817608E0,2.796989679E0,-8.817459106E0,-2.732561350E0,9.645601479E0
7.275559691E0,3.220050335E0,-8.604314804E0,-3.128169060E0,9.705070792E0
7.280301723E0,3.601514339E0,-8.402733803E0,-3.477100611E0,9.780954430E0
7.285043754E0,3.910085201E0,-8.196001053E0,-3.818270206E0,9.851009436E0
7.289785837E0,4.118898392E0,-8.012909889E0,-4.092134953E0,9.895333108E0
7.294527868E0,4.289156914E0,-7.884681225E0,-4.262839794E0,9.936642701E0
7.299269952E0,4.460378170E0,-7.799431801E0,-4.301669598E0,9.961449250E0
7.304011983E0,4.590637207E0,-7.903102875E0,-4.318248749E0,1.010842506E1
7.308754014E0,4.726232529E0,-7.870510101E0,-3.919294834E0,9.982137805E0
7.313496098E0,5.076601982E0,-7.852522373E0,-3.529745102E0,9.994653360E0
7.318238129E0,5.300665379E0,-7.961700439E0,-3.131493092E0,1.006439150E1
7.322980160E0,5.399188995E0,-8.002241135E0,-2.680237293E0,1.001852169E1
7.327722243E0,5.649150848E0,-8.034145355E0,-2.104604244E0,1.004438928E1
7.332464275E0,5.959721088E0,-8.083657265E0,-1.689959526E0,1.018428954E1
7.337206358E0,6.043951035E0,-8.186668396E0,-1.465675235E0,1.028100615E1
7.341948389E0,6.136497498E0,-8.381520271E0,-1.245772719E0,1.046223844E1
7.346690421E0,6.000421524E0,-8.591989517E0,-1.059193492E0,1.053324419E1
7.351432504E0,5.769892693E0,-8.732458115E0,-8.485718369E-1,1.050083618E1
7.356174535E0,5.358777046E0,-8.791742325E0,-5.421157479E-1,1.031043714E1
7.360916618E0,4.724020004E0,-8.825819969E0,-1.753987074E-1,1.001210407E1
7.365658650E0,3.982805014E0,-8.849976540E0,1.677815914E-1,9.706336651E0
7.370400681E0,3.400509119E0,-8.893754959E0,4.320054054E-1,9.531472510E0
7.375142764E0,2.926635027E0,-8.764301300E0,7.533740997E-1,9.270692660E0
7.379884796E0,2.687163353E0,-8.584479332E0,1.010509133E0,9.051809819E0
7.384626879E0,2.639145136E0,-8.319027901E0,1.045878530E0,8.790061101E0
7.389368910E0,2.950426817E0,-8.168731689E0,2.504093647E-1,8.688837705E0
7.394110993E0,3.219272375E0,-8.096712112E0,-1.526564360E0,8.845951639E0
7.398853025E0,3.011826515E0,-7.767085075E0,-3.348951817E0,8.978540405E0
7.403595108E0,2.837141275E0,-7.286668777E0,-4.845944405E0,9.199352676E0
7.408337139E0,2.502720356E0,-7.085332870E0,-5.481002808E0,9.300910861E0
7.413079171E0,2.293985605E0,-7.157512665E0,-5.750917435E0,9.463900298E0
7.417821254E0,2.302227974E0,-7.313538074E0,-5.874669552E0,9.659183980E0
7.422563285E0,2.180951834E0,-7.416692734E0,-5.721579552E0,9.617710464E0
7.427305368E0,1.966442466E0,-7.445400238E0,-5.308884621E0,9.353348951E0
7.432047400E0,1.689680815E0,-7.445281029E0,-4.665527821E0,8.947311367E0
7.436789483E0,1.620733738E0,-7.540935516E0,-3.759978294E0,8.580788022E0
7.441531514E0,1.691892982E0,-7.670486450E0,-2.861570358E0,8.359871360E0
7.446273546E0,1.928597212E0,-7.820048809E0,-1.945001245E0,8.285872339E0
7.451015629E0,2.437524319E0,-7.908703804E0,-1.064374208E0,8.343980652E0
7.455757660E0,3.211183071E0,-8.024964333E0,-5.064514875E-1,8.658420316E0
7.460499743E0,4.072578430E0,-8.144688606E0,-4.394137859E-2,9.106249415E0
7.465241775E0,4.979100227E0,-8.200546265E0,4.397213459E-1,9.603840533E0
7.469983858E0,5.665221214E0,-8.221013069E0,6.346122026E-1,1.000412515E1
7.474725889E0,5.733375549E0,-8.330373764E0,5.104045868E-1,1.012557332E1
7.479467973E0,5.403108597E0,-8.387447357E0,1.444617510E-1,9.978162400E0
7.484210004E0,5.089879990E0,-8.313476562E0,3.416225910E-1,9.753844209E0
7.488952035E0,4.998057365E0,-8.245196342E0,1.187018871E0,9.714569159E0
7.493694118E0,4.814468384E0,-8.484464645E0,2.522407532E0,1.007609974E1
7.498436202E0,4.146456242E0,-8.826126099E0,3.611607313E0,1.039890901E1
7.503178233E0,3.674506664E0,-8.940291405E0,4.051143646E0,1.048058083E1
7.507920264E0,3.992840767E0,-8.348268509E0,4.193492889E0,1.015981039E1
7.512662348E0,4.502949715E0,-7.587801456E0,4.194107533E0,9.769433201E0
7.517404379E0,4.901343346E0,-6.574379444E0,4.076992035E0,9.157919836E0
7.522146462E0,4.621333122E0,-5.243073463E0,4.041152000E0,8.073255146E0
7.526888493E0,4.333638668E0,-3.266043663E0,4.082142830E0,6.790534250E0
7.531630577E0,4.403662682E0,-1.051968575E0,3.792796612E0,5.906283860E0
7.536372608E0,4.814663887E0,1.610431671E0,3.336785078E0,6.075245935E0
7.541114691E0,6.383689880E0,5.568547249E0,2.579659939E0,8.855216562E0
7.545856723E0,9.899802208E0,1.295146465E1,1.866757870E0,1.640826942E1
7.550598806E0,1.640419579E1,2.576112747E1,-2.926965952E-1,3.054208571E1
7.555340837E0,2.611326218E1,4.575873184E1,-3.941482544E0,5.283274823E1
7.560082921E0,3.149851036E1,6.584774780E1,-9.223861694E0,7.357419160E1
7.564824952E0,2.844878578E1,6.919814301E1,-1.270562172E1,7.588905870E1
7.569567035E0,1.304970455E1,6.944906616E1,-8.615500450E0,7.118774071E1
7.574309066E0,-1.133475494E1,6.919055939E1,7.731027603E-1,7.011710109E1
7.579051150E0,-3.202189255E1,6.075752640E1,1.466669846E1,7.022813297E1
7.583793181E0,-4.216007233E1,4.919397736E1,2.849714088E1,7.077857123E1
7.588535264E0,-4.241979218E1,3.788280106E1,3.762878036E1,6.819435824E1
7.593277296E0,-3.854667664E1,2.935599518E1,4.098812103E1,6.346374397E1
7.598019379E0,-3.260117340E1,2.351780319E1,3.817321014E1,5.543570642E1
7.602761410E0,-2.581326866E1,1.991119003E1,3.169117737E1,4.546549296E1
7.607503493E0,-1.823794937E1,1.873626709E1,2.498848724E1,3.616759595E1
7.612245577E0,-1.089993668E1,1.980246162E1,1.911202240E1,2.960093759E1
7.616987608E0,-5.325237274E0,2.158955383E1,1.358728600E1,2.605918893E1
7.621729639E0,-2.282583714E0,2.393557549E1,9.976369858E0,2.603170985E1
7.626471723E0,-1.340162516E0,2.668188095E1,9.815011978E0,2.846143473E1
7.631213806E0,-8.505654335E-1,2.855457878E1,8.596896172E0,2.983276814E1
7.635955837E0,-3.307046890E-1,2.977120972E1,5.709230423E0,3.031550108E1
7.640697921E0,2.893395424E-1,2.959518814E1,3.037985563E0,2.975211311E1
7.645439952E0,-1.805496216E-2,2.707985306E1,1.541726112E0,2.712371079E1
7.650182035E0,1.904852152E0,2.368074036E1,1.550962687E0,2.380780147E1
7.654924066E0,3.405649662E0,2.071461487E1,2.055114508E0,2.109306081E1
7.659666150E0,3.758862495E0,1.818069839E1,2.246371508E0,1.870061567E1
7.664408181E0,4.018627167E0,1.594855881E1,2.413151264E0,1.662315227E1
7.669150264E0,4.169499397E0,1.385095596E1,4.326385498E0,1.509805676E1
7.673892296E0,4.227784157E0,1.197469234E1,5.928570747E0,1.401482668E1
7.678634379E0,4.287236691E0,1.016372967E1,5.942569733E0,1.252980184E1
7.683376410E0,4.159726620E0,8.181893349E0,5.142110825E0,1.052083685E1
7.688118493E0,4.035362244E0,5.669168472E0,4.526082516E0,8.301147062E0
7.692860525E0,3.730353355E0,3.112689972E0,3.429558277E0,5.946952580E0
7.697602608E0,3.498018980E0,7.700519562E-1,1.638145208E0,3.938608450E0
7.702344639E0,3.655303001E0,-1.136831284E0,-1.263093472E0,4.031008623E0
7.707086723E0,3.769366741E0,-2.415410995E0,-4.634044647E0,6.443345847E0
7.711828806E0,3.456917286E0,-3.750216007E0,-6.046365738E0,7.910305674E0
7.716570837E0,2.384109020E0,-5.335922241E0,-6.602279186E0,8.817376732E0
7.721312921E0,6.314222813E-1,-6.688275337E0,-8.952301025E0,1.119265003E1
7.726054952E0,-9.942648411E-1,-8.129791260E0,-1.000586891E1,1.293056384E1
7.730797035E0,-2.125348330E0,-9.829561234E0,-9.800523758E0,1.404235185E1
7.735539066E0,-2.229021072E0,-1.138426590E1,-9.852602959E0,1.521984987E1
7.740281150E0,-1.832208633E0,-1.277793789E1,-9.705048561E0,1.614994281E1
7.745023233E0,-1.627816200E0,-1.420458221E1,-9.678386688E0,1.726531524E1
7.749765264E0,-1.003594398E0,-1.563767719E1,-9.229953766E0,1.818615397E1
7.754507348E0,-6.187109947E-1,-1.660635948E1,-8.163857460E0,1.851492768E1
7.759249379E0,-4.229183197E-1,-1.717402267E1,-6.689201355E0,1.843559952E1
7.763991462E0,2.349267006E-1,-1.743716431E1,-4.913760662E0,1.811780708E1
7.768733493E0,7.090575695E-1,-1.769068527E1,-2.954494476E0,1.794971158E1
7.773475577E0,6.931066513E-1,-1.790208435E1,-1.245550632E0,1.795874209E1
7.778217608E0,4.520940781E-1,-1.831376648E1,-2.604653835E-1,1.832119739E1
7.782959691E0,9.090535641E-1,-1.974329376E1,2.478902340E-1,1.976576527E1
7.787701775E0,1.519925117E0,-2.099875259E1,2.183773994E0,2.116664007E1
7.792443806E0,3.523087740E0,-2.223241806E1,4.625591278E0,2.298017961E1
7.797185889E0,6.105204105E0,-2.322555923E1,8.445484161E0,2.545636112E1
7.801927921E0,8.375167847E0,-2.312837982E1,1.193424892E1,2.734029420E1
7.806670004E0,9.309722900E0,-2.246973038E1,1.335672760E1,2.774818725E1
7.811412035E0,6.519061089E0,-2.234893799E1,1.210170746E1,2.623784500E1
7.816154118E0,9.663071632E-1,-2.128807259E1,1.002287674E1,2.354939154E1
7.820896202E0,-3.587795734E0,-1.989536285E1,7.550244331E0,2.158017448E1
7.825638233E0,-6.199832916E0,-1.833442307E1,5.872364998E0,2.022556966E1
7.830380316E0,-7.553644180E0,-1.689712906E1,4.860276699E0,1.913616473E1
7.835122348E0,-8.046113014E0,-1.585293388E1,3.862252712E0,1.819264806E1
7.839864431E0,-7.665811539E0,-1.525523376E1,2.772850275E0,1.729669108E1
7.844606462E0,-6.423673630E0,-1.483160210E1,1.419998050E0,1.622517791E1
7.849348546E0,-4.879953861E0,-1.437206650E1,1.896787882E-1,1.517913776E1
7.854090629E0,-3.529357195E0,-1.381534576E1,-6.077131629E-1,1.427198151E1
7.858832660E0,-2.150563002E0,-1.326294518E1,-6.872860193E-1,1.345373547E1
7.863574743E0,-9.604532719E-1,-1.267782021E1,-8.575319052E-1,1.274303561E1
7.868316775E0,-8.979558945E-3,-1.215725422E1,-1.003239393E0,1.219858189E1
7.873058858E0,8.162399530E-1,-1.170533562E1,-1.378358245E0,1.181444036E1
7.877800941E0,1.502717137E0,-1.129290581E1,-1.775254250E0,1.152993530E1
7.882542973E0,2.013734102E0,-1.098910522E1,-2.055521965E0,1.135960955E1
7.887285056E0,2.343446732E0,-1.073161888E1,-2.209911108E0,1.120460144E1
7.892027087E0,2.528780699E0,-1.053724194E1,-2.252801657E0,1.106812155E1
7.896769171E0,2.644703627E0,-1.038216686E1,-2.236699820E0,1.094470978E1
7.901511254E0,2.629719019E0,-1.022350407E1,-2.199680328E0,1.078304461E1
7.906253285E0,2.690077782E0,-1.005671787E1,-2.124524593E0,1.062486224E1
