"Time (s)","Linear Acceleration x (m/s^2)","Linear Acceleration y (m/s^2)","Linear Acceleration z (m/s^2)","Absolute acceleration (m/s^2)"
5.048365500E-2,0.000000000E0,0.000000000E0,0.000000000E0,0.000000000E0
5.522537400E-2,-5.389595032E-2,-7.639455795E-2,1.545062065E-1,1.805908907E-1
5.996709300E-2,-7.892894745E-2,-1.290187836E-1,2.845697403E-1,3.222662911E-1
6.470881100E-2,-1.139276028E-1,-1.401772499E-1,4.067125320E-1,4.450216217E-1
6.945053000E-2,-1.576406956E-1,-1.361637115E-1,5.009355545E-1,5.425196540E-1
7.419224900E-2,-1.928303242E-1,-1.452717781E-1,3.969249725E-1,4.645824547E-1
7.893396800E-2,-2.061579227E-1,-1.659603119E-1,1.321716309E-1,2.958263921E-1
8.367568600E-2,-2.251443863E-1,-1.289639473E-1,-2.672004700E-1,3.724483663E-1
8.841740500E-2,-2.200343609E-1,-8.287525177E-2,-6.854343414E-1,7.246403686E-1
9.315912400E-2,-2.258417606E-1,-5.111217499E-3,-1.059720993E0,1.083530899E0
9.790084300E-2,9.408807755E-2,6.590471268E-1,-1.235004425E0,1.403008058E0
1.026426140E-1,-1.936092377E-1,6.581249237E-1,-1.363275528E0,1.526149769E0
1.073843320E-1,-4.282541275E-1,3.087987900E-1,-1.195943356E0,1.307302107E0
1.121260510E-1,-3.629839420E-1,-2.979178429E-1,-1.400620461E0,1.477244075E0
1.168677700E-1,-2.619633675E-1,-4.430332184E-1,-1.567672253E0,1.649999858E0
1.216094890E-1,-3.470005989E-1,-5.719523430E-1,-1.760799408E0,1.883601193E0
1.263512070E-1,-5.728130341E-1,-4.857788086E-1,-1.742175102E0,1.897174191E0
1.310929260E-1,-8.345096111E-1,-1.181402206E-1,-1.744138241E0,1.937106503E0
1.358346450E-1,-1.354298830E0,-1.488323212E-1,-1.578833580E0,2.085423663E0
1.405763640E-1,-1.461588621E0,-4.673871994E-1,-1.423275948E0,2.092942071E0
1.453180820E-1,-1.192961216E0,-4.729976654E-1,-1.572822571E0,2.029939431E0
1.500598010E-1,-9.166712761E-1,-4.653649330E-1,-1.660162449E0,1.952687918E0
1.548015200E-1,-6.807432175E-1,-5.139489174E-1,-9.344625473E-1,1.265217400E0
1.595432390E-1,8.460097313E-1,1.132407188E-1,4.672101974E0,4.749430785E0
1.642849570E-1,7.067012787E-2,-4.350042343E-2,1.862448215E0,1.864296089E0
1.690266760E-1,-3.052330017E-2,-8.425283432E-2,1.263624191E0,1.266797659E0
1.737683950E-1,2.990062237E-1,1.171870232E-1,1.993590355E0,2.019291961E0
1.785101660E-1,5.419096947E-1,5.345730782E-1,2.350244045E0,2.470441573E0
1.832518840E-1,6.258573532E-1,9.353165627E-1,2.269909859E0,2.533575589E0
1.879936030E-1,5.131847858E-1,1.006941319E0,1.419991016E0,1.814845429E0
1.927353220E-1,7.708005905E-1,6.502051353E-1,7.029733658E-1,1.229256613E0
1.974770410E-1,2.587060928E0,9.101119041E-1,3.949463844E0,4.808269188E0
2.022187590E-1,7.196525574E0,3.340952396E0,1.534339333E1,1.727343805E1
2.069604780E-1,4.895912170E0,2.523719311E0,8.140721321E0,9.829061947E0
2.117021970E-1,2.059635401E0,1.010039806E0,-8.200740814E-2,2.295431029E0
2.164439160E-1,5.599241257E-1,7.160234451E-1,-3.040530205E0,3.173488385E0
2.211856340E-1,-9.745154381E-1,2.868065834E-1,-4.535781860E0,4.648145376E0
2.259273530E-1,-1.686611414E0,-3.169379234E-1,-5.177536964E0,5.454539094E0
2.306691240E-1,-1.146784067E0,-2.214512825E-1,-5.366072178E0,5.491710570E0
2.354108430E-1,-2.273035049E-2,-4.258060455E-2,-5.079597473E0,5.079826795E0
2.401525610E-1,1.712383151E0,1.320114136E-1,-4.035466194E0,4.385734884E0
2.448942800E-1,4.270132542E0,8.037519455E-1,-2.474855900E0,5.000496059E0
2.496359990E-1,6.220924854E0,1.896508694E0,-6.025786400E-1,6.531443354E0
2.543777180E-1,6.304500580E0,2.836913109E0,1.213130951E0,7.019009207E0
2.591194360E-1,4.079316616E0,3.107124805E0,2.082439423E0,5.534582420E0
2.638611550E-1,8.738466501E-1,2.318779469E0,1.574296951E0,2.935771974E0
2.686028740E-1,-1.411314845E0,7.587857246E-1,7.781009674E-1,1.781293486E0
2.733445930E-1,-2.567649603E0,-8.363485336E-1,4.442682266E-1,2.736727537E0
2.780863110E-1,-2.775461197E0,-1.758401394E0,3.306818008E-1,3.302197870E0
2.828280820E-1,-3.017001152E0,-2.469801426E0,2.143144608E-1,3.904887415E0
2.875698010E-1,-2.961977243E0,-2.637829065E0,-1.523685455E-2,3.966318637E0
2.923115200E-1,-2.958800077E0,-2.608235359E0,-3.705558777E-1,3.961653852E0
2.970532390E-1,-2.811864376E0,-2.326951742E0,-1.045562267E0,3.796641428E0
3.017949570E-1,-2.572779417E0,-1.909619808E0,-1.930054188E0,3.740447956E0
3.065366760E-1,-2.028073549E0,-1.444033623E0,-2.732262135E0,3.696426896E0
3.112783950E-1,-1.158157349E0,-1.035415173E0,-3.405151844E0,3.742789348E0
3.160201140E-1,-4.138259888E-1,-7.637915611E-1,-3.848155499E0,3.944987990E0
3.207618320E-1,-2.453193665E-1,-5.219454765E-1,-4.284634113E0,4.323274009E0
3.255036030E-1,-7.566642761E-2,-4.286456108E-1,-4.708287239E0,4.728364537E0
3.302453220E-1,-1.344680786E-3,-4.835057259E-1,-4.808947563E0,4.833193174E0
3.349870410E-1,-1.733095646E-1,-4.535698891E-1,-4.565746307E0,4.591492262E0
3.397287590E-1,-3.763661385E-1,-4.270977974E-1,-3.993849277E0,4.034215667E0
3.444704780E-1,-2.235604286E0,1.495246410E0,-5.827845573E0,6.418525717E0
3.492121970E-1,-2.503078938E0,1.824395180E0,-4.694109917E0,5.623921216E0
3.539539160E-1,-3.012962341E0,2.000459194E0,-4.270807266E0,5.596389351E0
3.586956340E-1,-2.528871059E0,1.915856838E0,-5.238405228E0,6.124262044E0
3.634374050E-1,-1.965995550E0,1.806042194E0,-5.782071590E0,6.368616709E0
3.681791240E-1,-2.568410158E0,1.711029053E0,-5.827748299E0,6.594467484E0
3.729208430E-1,-3.272478104E0,1.423775673E0,-5.403036118E0,6.475264427E0
3.776625610E-1,-3.958818436E0,1.048085213E0,-4.684828758E0,6.222406810E0
3.824042800E-1,-4.800867081E0,4.020323753E-1,-3.624369860E0,6.028765349E0
3.871459990E-1,-5.367802620E0,4.539089203E-1,-2.700226307E0,6.025824457E0
3.918877180E-1,-5.685745239E0,3.864073753E-1,-2.851770401E0,6.372566516E0
3.966294360E-1,-6.259922504E0,8.367395401E-2,-3.039581776E0,6.959359774E0
4.013712070E-1,-7.038440704E0,-2.357687950E-1,-3.400938988E0,7.820589522E0
4.061129260E-1,-6.944015026E0,-4.982733727E-1,-3.589835882E0,7.832914062E0
4.108546450E-1,-6.459220886E0,-8.802390099E-1,-1.949686050E0,6.804236244E0
4.155963640E-1,-5.166225433E0,-1.999782324E0,-3.358073235E-1,5.549935237E0
4.203380820E-1,-2.992080927E0,-3.278976440E0,-2.643904686E-1,4.446812014E0
4.250798010E-1,-1.085939407E0,-4.448635578E0,-1.164285183E0,4.724953216E0
4.298215200E-1,5.761656761E-1,-5.417797089E0,-2.253169060E0,5.895868298E0
4.345632910E-1,1.999878883E0,-6.310357094E0,-2.498655319E0,7.075549491E0
4.393050090E-1,1.640689969E0,-6.786771774E0,-2.767225266E0,7.510637147E0
4.440467280E-1,6.432211399E-1,-6.505555153E0,-3.031163216E0,7.205826235E0
4.487884470E-1,9.786128998E-1,-5.808580399E0,-2.836078167E0,6.537631744E0
4.535301660E-1,2.262133121E0,-4.981329918E0,-2.405849934E0,5.976538121E0
4.582718840E-1,3.548139572E0,-4.530474663E0,-1.988061428E0,6.088257824E0
4.630136030E-1,4.237565041E0,-4.866739750E0,-1.838806629E0,6.709942108E0
4.677553740E-1,4.725978851E0,-5.732944489E0,-1.886200428E0,7.665460238E0
4.724970930E-1,5.054439545E0,-6.578603268E0,-1.715120792E0,8.471541737E0
4.772388110E-1,5.363069534E0,-7.226052284E0,-1.696349621E0,9.157289363E0
4.819805300E-1,5.474415302E0,-7.613162041E0,-1.825283527E0,9.553068571E0
4.867222490E-1,5.467383385E0,-7.927303314E0,-1.931923389E0,9.821748668E0
4.914639680E-1,4.898032665E0,-8.074789047E0,-1.608876705E0,9.580262335E0
4.962056860E-1,4.484348297E0,-7.995987892E0,-1.173316956E0,9.242395507E0
5.009474570E-1,4.459828854E0,-7.873258591E0,-9.086875916E-1,9.094173265E0
5.056891760E-1,4.444390297E0,-7.895914555E0,-8.437709808E-1,9.100001167E0
5.104308950E-1,5.588545322E0,-7.627349377E0,-3.109251022E0,9.953679684E0
5.151726140E-1,6.362781525E0,-8.146768570E0,9.441156387E-1,1.038008580E1
5.199143320E-1,7.154221058E0,-8.219058990E0,-9.988389015E-1,1.094227987E1
5.246560510E-1,7.422783852E0,-9.463318825E0,-7.859401703E-1,1.205279325E1
5.293978220E-1,7.460213661E0,-1.024589348E1,-1.214291573E0,1.273214927E1
5.341395410E-1,7.880431175E0,-1.047801399E1,-1.084960938E0,1.315549744E1
5.388812590E-1,8.801526070E0,-1.074048901E1,-3.494071960E-1,1.389053817E1
5.436229780E-1,9.299973488E0,-1.107156086E1,1.157459736E0,1.450547068E1
5.483646970E-1,9.343778610E0,-1.147909451E1,2.593526363E0,1.502671582E1
5.531064160E-1,9.133946419E0,-1.189752960E1,3.683534622E0,1.544501910E1
5.578481860E-1,8.794258118E0,-1.229777527E1,4.512098312E0,1.577761971E1
5.625899050E-1,8.206632614E0,-1.258957958E1,5.235868454E0,1.591416512E1
5.673316240E-1,7.400647163E0,-1.267406464E1,6.007168293E0,1.585835943E1
5.720733430E-1,6.472706318E0,-1.264993095E1,6.810822010E0,1.575766406E1
5.768150610E-1,5.483464241E0,-1.248640251E1,7.790743828E0,1.570586888E1
5.815567800E-1,4.405379295E0,-1.233495426E1,8.564908981E0,1.564979646E1
5.862985510E-1,3.525734425E0,-1.244880486E1,8.575724602E0,1.552245464E1
5.910402700E-1,2.891750097E0,-1.258693218E1,8.240577698E0,1.531992824E1
5.957819890E-1,2.305529594E0,-1.255725956E1,7.614348888E0,1.486534706E1
6.005237070E-1,1.710347891E0,-1.245824051E1,6.532442093E0,1.417059795E1
6.052654260E-1,8.180360794E-1,-1.264132214E1,5.434907913E0,1.378442717E1
6.100071450E-1,-2.126936913E-1,-1.291642380E1,4.630356789E0,1.372295327E1
6.147489160E-1,-1.187261581E0,-1.282960606E1,4.068205833E0,1.351142777E1
6.194906340E-1,-2.866918087E0,-1.262270451E1,3.643750668E0,1.344726021E1
6.242323530E-1,-4.937156200E0,-1.218723106E1,3.479699135E0,1.360192701E1
6.289740720E-1,-6.783491611E0,-1.157983589E1,3.468386173E0,1.386138739E1
6.337157910E-1,-8.780627251E0,-1.091219902E1,3.542046070E0,1.444720017E1
6.384575610E-1,-1.102144623E1,-1.021298981E1,3.928643703E0,1.553099092E1
6.431992800E-1,-1.343873692E1,-9.373635292E0,4.512370586E0,1.699488678E1
6.479409990E-1,-1.594070625E1,-8.590541840E0,4.766487122E0,1.872492789E1
6.526827180E-1,-1.811926651E1,-7.561684608E0,4.635354042E0,2.017358174E1
6.574244360E-1,-2.002537346E1,-6.134352684E0,4.422697544E0,2.140574966E1
6.621661550E-1,-2.191989899E1,-4.532125473E0,4.238495827E0,2.278128574E1
6.669079260E-1,-2.342886162E1,-2.854859114E0,3.976834297E0,2.393484883E1
6.716496450E-1,-2.429406548E1,-1.046553135E0,3.626455307E0,2.458552560E1
6.763913640E-1,-2.522018623E1,6.134309769E-1,3.241297722E0,2.543501724E1
6.811330820E-1,-2.645407486E1,2.056816101E0,2.998814106E0,2.670283609E1
6.858748010E-1,-2.690112495E1,3.519517899E0,3.088292599E0,2.730558700E1
6.906165720E-1,-2.792620659E1,4.084576607E0,3.215234280E0,2.840588868E1
6.953582910E-1,-2.937317657E1,4.016181946E0,2.988171101E0,2.979668415E1
7.001000090E-1,-3.023334694E1,4.079462528E0,2.106409073E0,3.057996470E1
7.048417280E-1,-2.950591850E1,4.749547482E0,1.722944260E0,2.993536312E1
7.095834470E-1,-2.913006020E1,4.279926777E0,1.896160126E0,2.950378965E1
7.143252180E-1,-2.726186180E1,4.245939732E0,2.359288216E0,2.769121438E1
7.190669360E-1,-2.352538681E1,4.900801182E0,2.842214584E0,2.419793091E1
7.238086550E-1,-2.051620293E1,5.215076447E0,2.927556038E0,2.137012375E1
7.285503740E-1,-1.851495361E1,5.057836056E0,2.629905701E0,1.937270288E1
7.332920930E-1,-1.669232178E1,4.873606205E0,2.242922783E0,1.753329251E1
7.380338640E-1,-1.516224861E1,4.787112236E0,1.786842346E0,1.600009475E1
7.427755820E-1,-1.420639038E1,4.739100933E0,9.943504333E-1,1.500897525E1
7.475173010E-1,-1.365464973E1,4.811189651E0,-9.772300720E-3,1.447746873E1
7.522590200E-1,-1.364887047E1,4.990618706E0,-7.115840912E-1,1.455006158E1
7.570007390E-1,-1.410130119E1,5.199778557E0,-1.166496754E0,1.507465114E1
7.617425090E-1,-1.461373520E1,5.404574871E0,-1.945668221E0,1.570211167E1
7.664842280E-1,-1.497856331E1,5.583439827E0,-2.955217838E0,1.625624408E1
7.712259470E-1,-1.516499710E1,5.782213688E0,-4.063388348E0,1.673087735E1
7.759676660E-1,-1.497963047E1,5.904940605E0,-5.266890526E0,1.694100907E1
7.807093840E-1,-1.431436157E1,5.803620338E0,-6.365595818E0,1.670639896E1
7.854511030E-1,-1.196223450E1,6.120081425E0,-6.184196949E0,1.479171196E1
7.901928740E-1,-1.210462093E1,5.359570026E0,-6.558247566E0,1.477353884E1
7.949345930E-1,-1.205160046E1,4.366568565E0,-6.825139523E0,1.452207024E1
7.996763110E-1,-1.133535385E1,3.630697966E0,-7.227962017E0,1.392535994E1
8.044180300E-1,-1.022314835E1,3.093361616E0,-6.749527931E0,1.263478435E1
8.091597490E-1,-9.002811432E0,2.605873585E0,-6.492053986E0,1.140122606E1
8.139015200E-1,-7.445733547E0,2.206382751E0,-6.299004078E0,9.999226234E0
8.186432390E-1,-5.682996750E0,1.874026060E0,-6.344880581E0,8.721578717E0
8.233849570E-1,-4.157452106E0,1.398086548E0,-6.264495373E0,7.647415007E0
8.281266760E-1,-2.100162983E0,9.135916233E-1,-6.793690205E0,7.169348702E0
8.328683950E-1,2.590408325E-1,2.480086088E-1,-8.334706306E0,8.342418093E0
8.376101660E-1,2.210557699E0,-1.014984488E0,-9.936865807E0,1.023025224E1
8.423518840E-1,3.726117849E0,-2.397164583E0,-1.095805740E1,1.181987201E1
8.470936030E-1,4.104243755E0,-3.066426277E0,-9.447276115E0,1.074703740E1
8.518353220E-1,3.733919144E0,-2.629706144E0,-6.132547379E0,7.646283014E0
8.565770410E-1,3.076833248E0,-1.377714157E0,-2.856716156E0,4.418803722E0
8.613188110E-1,4.397795677E0,1.253530979E-1,-2.206589222E0,4.921926067E0
8.660605300E-1,3.560059071E0,7.940939665E-1,-2.351679802E-1,3.655121037E0
8.708022490E-1,2.410944939E0,7.366873026E-1,1.267943382E0,2.821886621E0
8.755439680E-1,1.650547504E0,4.274349213E-1,8.611907959E-1,1.910145875E0
8.802856860E-1,1.066005230E0,6.070089340E-2,3.636059761E-1,1.127945502E0
8.850274050E-1,1.000029087E0,-2.052443027E-1,-7.047080994E-2,1.023303246E0
8.897691760E-1,9.747538567E-1,-4.511017799E-1,-5.706119537E-1,1.216238422E0
8.945108950E-1,9.163923264E-1,-7.631201744E-1,-8.761887550E-1,1.479808782E0
8.992526140E-1,1.295649529E0,-1.148986101E0,-9.670963287E-1,1.983469705E0
9.039943320E-1,1.852029800E0,-1.542725325E0,-8.830881119E-1,2.567072345E0
9.087361030E-1,2.360299826E0,-1.924344540E0,-4.944314957E-1,3.085219551E0
9.134778220E-1,2.630001783E0,-2.271825075E0,9.226846695E-2,3.476580507E0
9.182195410E-1,2.662080526E0,-2.639408588E0,5.899558067E-1,3.794891076E0
9.229612590E-1,2.587622881E0,-2.869367361E0,8.980493546E-1,3.966806508E0
9.277029780E-1,2.494073868E0,-2.945427418E0,1.135401726E0,4.023069004E0
9.324447490E-1,2.473289490E0,-2.880267382E0,1.460651875E0,4.067751835E0
9.371864680E-1,2.352637291E0,-2.710762501E0,1.834064484E0,4.030747832E0
9.419281860E-1,1.818674564E0,-2.371743202E0,2.333764076E0,3.791991265E0
9.466699050E-1,1.122738361E0,-1.867877483E0,2.874200821E0,3.607012348E0
9.514116240E-1,4.213991165E-1,-1.282500386E0,3.064952850E0,3.349077549E0
9.561533950E-1,-2.764539719E-1,-5.955845118E-1,2.747212410E0,2.824592667E0
9.608951140E-1,-1.124192238E0,1.293762922E-1,2.186624527E0,2.462087170E0
9.656368320E-1,-2.082899570E0,8.912099600E-1,1.543658257E0,2.741460674E0
9.703785510E-1,-2.896468163E0,1.600756288E0,9.477667809E-1,3.442413453E0
9.751202700E-1,-3.609600544E0,2.343261719E0,4.689159393E-1,4.328969130E0
9.798619890E-1,-4.192776680E0,3.063210487E0,-4.686498642E-2,5.192767192E0
9.846037590E-1,-4.331494808E0,3.753463507E0,-6.890158653E-1,5.772787752E0
9.893454780E-1,-4.040410042E0,4.476387024E0,-1.245236397E0,6.157399433E0
9.940871970E-1,-3.584372044E0,5.146650791E0,-1.859336376E0,6.541625874E0
9.988289160E-1,-3.328181744E0,5.810429573E0,-2.525454044E0,7.156521758E0
1.003570634E0,-3.034089565E0,6.401821613E0,-3.330150843E0,7.828085596E0
1.008312353E0,-2.665641785E0,6.855457306E0,-4.190394878E0,8.465361790E0
1.013054124E0,-2.036596775E0,7.154163361E0,-4.978432655E0,8.950674361E0
1.017795843E0,-1.180993080E0,7.183578491E0,-5.607844830E0,9.189475950E0
1.022537561E0,-4.731273651E-1,7.008356094E0,-6.001986504E0,9.239304446E0
1.027279280E0,-7.811689377E-2,6.523432732E0,-6.394256115E0,9.134976087E0
1.032020999E0,2.109432220E-1,5.750469208E0,-6.502842903E0,8.683280427E0
1.036762770E0,5.539293289E-1,4.553583145E0,-6.429437160E0,7.898076941E0
1.041504489E0,8.165588379E-1,3.238200903E0,-6.097010136E0,6.951708137E0
1.046246207E0,1.069908142E0,1.884135962E0,-5.450631142E0,5.865496705E0
1.050987926E0,1.202169895E0,5.633960962E-1,-4.384497643E0,4.581096724E0
1.055729645E0,1.097614765E0,-5.743870735E-1,-3.059762716E0,3.301034166E0
1.060471416E0,8.307023048E-1,-1.540336132E0,-1.783351898E0,2.498608755E0
1.065213134E0,5.764799118E-1,-2.293399572E0,-7.364401817E-1,2.476762974E0
1.069954853E0,4.301266670E-1,-2.947351694E0,-9.047412872E-2,2.979945725E0
1.074696572E0,4.253373146E-1,-3.534224272E0,1.565337181E-1,3.563166547E0
1.079438291E0,3.700852394E-1,-4.083353519E0,9.577322006E-2,4.101208549E0
1.084180009E0,1.466846466E-1,-4.464722157E0,-2.969393730E-1,4.476989313E0
1.088921780E0,-2.483510971E-1,-4.615712643E0,-1.196784019E0,4.774806117E0
1.093663499E0,-6.939992905E-1,-4.704976082E0,-2.002788305E0,5.160387189E0
1.098405218E0,-1.142507553E0,-4.766616821E0,-2.372425556E0,5.445581920E0
1.103146936E0,-1.465491772E0,-4.878600121E0,-2.352473736E0,5.610930221E0
1.107888655E0,-1.328535080E0,-5.024300575E0,-2.092141151E0,5.602290275E0
1.112630374E0,-5.077643394E-1,-5.376821518E0,-1.505725384E0,5.606714117E0
1.117372145E0,9.275217056E-1,-5.796976566E0,-6.815314293E-1,5.910136962E0
1.122113864E0,2.078550339E0,-5.168620586E0,3.008098602E-1,5.579022930E0
1.126855582E0,3.164849281E0,-5.242256165E0,1.287410259E0,6.257391297E0
1.131597301E0,3.870796204E0,-5.141448498E0,1.586025715E0,6.628199867E0
1.136339020E0,4.269540787E0,-4.923867702E0,1.347400665E0,6.654993631E0
1.141080791E0,3.532082558E0,-4.586718559E0,1.033669949E0,5.880651996E0
1.145822509E0,1.450028419E0,-3.853002548E0,7.208237648E-1,4.179449480E0
1.150564228E0,-5.607347488E-1,-3.031724453E0,4.839200974E-1,3.120890142E0
1.155305947E0,-1.943250179E0,-2.191072702E0,1.711587906E-1,2.933652362E0
1.160047666E0,-2.085962296E0,-1.453200340E0,-6.059055328E-1,2.613455843E0
1.164789384E0,-2.362085819E0,-1.180289030E0,-9.850926399E-1,2.818322040E0
1.169531155E0,-2.884372234E0,-1.106642723E0,-1.152666092E0,3.297408137E0
1.174272874E0,-3.334084034E0,-1.189198136E0,-1.254166603E0,3.755428394E0
1.179014593E0,-3.525959969E0,-1.331985950E0,-1.471648693E0,4.046273613E0
1.183756311E0,-2.869440079E0,-1.507161617E0,-1.545251846E0,3.590685975E0
1.188498030E0,-1.622359276E0,-1.375537634E0,-1.537518024E0,2.624521876E0
1.193239749E0,-2.764234543E-1,-1.042025805E0,-1.306519508E0,1.693877483E0
1.197981520E0,1.314017296E0,-4.366382360E-1,-8.440179825E-1,1.621622878E0
1.202723239E0,2.247171402E0,3.071695566E-1,1.162088871E0,2.548447172E0
1.207464957E0,3.501856327E0,9.352788925E-1,4.870235443E0,6.070991485E0
1.212206676E0,4.715394497E0,-5.762064457E-1,1.297312260E1,1.381552999E1
1.216948395E0,1.024526024E1,-2.999212503E0,2.098560524E1,2.354477140E1
1.221690114E0,1.326628685E1,-4.667067051E0,2.244820023E1,2.648957484E1
1.226431832E0,1.090361786E1,-6.391565800E0,1.836017227E1,2.228983898E1
1.231173603E0,1.061811447E1,-6.771779060E0,1.573232079E1,2.015210321E1
1.235915322E0,1.052719498E1,-6.471730709E0,1.441308022E1,1.898531047E1
1.240657041E0,1.024774742E1,-5.959160805E0,1.335632706E1,1.785831451E1
1.245398759E0,1.066309547E1,-4.971962929E0,1.276690483E1,1.736133288E1
1.250140478E0,1.092719841E1,-3.623184204E0,1.255698586E1,1.703552238E1
1.254882197E0,1.035327339E1,-2.369051933E0,1.171710968E1,1.581433958E1
1.259623916E0,8.955627441E0,-1.378546953E0,1.037842846E1,1.377735214E1
1.264365686E0,6.251834869E0,-7.674551010E-1,8.684146881E0,1.072794638E1
1.269107405E0,2.566040516E0,-4.818109274E-1,6.784694195E0,7.269716708E0
1.273849124E0,-2.902917862E-1,-4.509918094E-1,5.132009983E0,5.159960213E0
1.278590843E0,-1.575380325E0,-5.410065651E-1,3.891227245E0,4.232748604E0
1.283332561E0,-1.993275642E0,-9.244208336E-1,2.906924963E0,3.643887266E0
1.288074280E0,-1.935560226E0,-1.442459345E0,2.273960590E0,3.316320117E0
1.292815999E0,-1.532825470E0,-1.863891363E0,1.879035234E0,3.058499362E0
1.297557718E0,-8.638734818E-1,-2.224415064E0,1.395838022E0,2.764536770E0
1.302299436E0,9.029388428E-2,-2.765554905E0,9.551250935E-1,2.927236045E0
1.307041207E0,8.420200348E-1,-3.231534958E0,6.871905327E-1,3.409405630E0
1.311782926E0,1.572535515E0,-3.571149826E0,3.648419380E-1,3.919067321E0
1.316524645E0,2.132194519E0,-3.794199228E0,6.583070755E-2,4.352761759E0
1.321266364E0,2.030777454E0,-3.923961878E0,-5.146981478E-1,4.448196047E0
1.326008082E0,1.743684292E0,-4.263070583E0,-9.737515450E-1,4.707695591E0
1.330749801E0,1.971516609E0,-4.699215889E0,-7.244338989E-1,5.147262591E0
1.335491520E0,2.081559181E0,-4.991870880E0,-2.395398617E-1,5.413782675E0
1.340233239E0,1.970250607E0,-5.265669823E0,5.340083838E-1,5.647506626E0
1.344975009E0,2.450090408E0,-5.310143948E0,4.481776953E-1,5.865273651E0
1.349716728E0,3.925230026E0,-4.849182129E0,1.540398598E-1,6.240651116E0
1.354458447E0,5.884744644E0,-3.785924196E0,-2.120449543E-1,7.000600304E0
1.359200166E0,7.370571613E0,-2.561953068E0,-7.034405470E-1,7.834778748E0
1.363941884E0,7.804829597E0,-1.409602046E0,-1.488309145E0,8.069535742E0
1.368683603E0,7.549476624E0,-7.994969487E-1,-2.506326199E0,7.994714734E0
1.373425322E0,7.306312561E0,-6.563901901E-2,-3.456611633E0,8.082986806E0
1.378167041E0,5.629536629E0,4.055792391E-1,-4.235683441E0,7.056712506E0
1.382908759E0,3.356542110E0,6.879906058E-1,-4.527508259E0,5.677854969E0
1.387650478E0,9.903554916E-1,6.976745725E-1,-4.032428741E0,4.210467357E0
1.392392249E0,-6.599130630E-1,8.223938346E-1,-3.265127659E0,3.431162412E0
1.397133968E0,-1.899613380E0,8.174098134E-1,-2.160005093E0,2.990369843E0
1.401875686E0,-2.863621712E0,5.497208834E-1,-1.074101806E0,3.107445421E0
1.406617405E0,-3.440818787E0,-1.420432609E-2,-2.191557437E-1,3.447820315E0
1.411359124E0,-3.577909470E0,-6.728726625E-1,4.561623931E-1,3.669097699E0
1.416100843E0,-3.250466347E0,-1.274612546E0,1.075791121E0,3.653422388E0
1.420842561E0,-2.915925980E0,-1.890133500E0,1.786142588E0,3.907113296E0
1.425584280E0,-2.920174599E0,-2.628182173E0,2.503000498E0,4.658301484E0
1.430325999E0,-3.044765472E0,-3.194120646E0,3.279101610E0,5.497773263E0
1.435067718E0,-3.167419434E0,-3.662264347E0,3.315555096E0,5.868358511E0
1.439809436E0,-3.061371803E0,-3.906244993E0,2.996412039E0,5.797347011E0
1.444551155E0,-2.615235329E0,-4.043117523E0,2.516722918E0,5.433244829E0
1.449292874E0,-2.288205147E0,-4.225480080E0,1.768755198E0,5.120455023E0
1.454034593E0,-1.750666618E0,-4.364116669E0,1.021730661E0,4.811889593E0
1.458776364E0,-1.005713463E0,-4.591873646E0,1.563243568E-1,4.703318026E0
1.463518082E0,-4.738512039E-1,-4.785380840E0,-7.354872227E-1,4.864704123E0
1.468259801E0,2.951812744E-2,-4.943209648E0,-1.542459130E0,5.178356217E0
1.473001520E0,3.279380798E-1,-5.088226795E0,-1.999183416E0,5.476707920E0
1.477743239E0,7.012557983E-1,-5.111899376E0,-2.339176655E0,5.665246892E0
1.482484957E0,1.020229340E0,-5.051867008E0,-2.721943855E0,5.828482352E0
1.487226676E0,1.089043617E0,-4.817515373E0,-3.032936335E0,5.795961800E0
1.491968395E0,7.172613144E-1,-4.502681732E0,-3.093846798E0,5.510035806E0
1.496710114E0,-3.184318542E-3,-4.255468369E0,-2.831618309E0,5.111465878E0
1.501451832E0,-3.407354355E-1,-3.961853981E0,-2.462184906E0,4.677044164E0
1.506193551E0,-7.352828979E-3,-3.573615551E0,-2.170288801E0,4.181020886E0
1.510935270E0,4.394674301E-1,-3.168761492E0,-1.984646559E0,3.764704899E0
1.515676989E0,5.776958466E-1,-2.901690245E0,-1.515833378E0,3.324347996E0
1.520418707E0,6.334018707E-1,-2.712360382E0,-1.247938633E0,3.052121820E0
1.525160426E0,7.077302933E-1,-2.646802187E0,-1.284389496E0,3.025904883E0
1.529902145E0,9.324522018E-1,-2.627246141E0,-1.487566948E0,3.159864684E0
1.534643864E0,8.874616623E-1,-2.927951813E0,-1.775547147E0,3.537380060E0
1.539385582E0,6.524248123E-1,-3.295144081E0,-1.768571496E0,3.796245222E0
1.544127301E0,7.955408096E-1,-3.231866360E0,-6.470279694E-1,3.390647510E0
1.548869020E0,7.016572952E-1,-3.343684196E0,3.628429770E-1,3.435724377E0
1.553610739E0,3.707485199E-1,-3.653201342E0,1.086938024E0,3.829460638E0
1.558352457E0,-7.076931000E-2,-4.030935764E0,1.495771885E0,4.300091274E0
1.563094176E0,-5.875587463E-1,-4.405722141E0,1.606556058E0,4.726164960E0
1.567835895E0,-1.175433159E0,-4.728340149E0,1.431846857E0,5.078289978E0
1.572577614E0,-1.961460114E0,-4.992828369E0,1.072581530E0,5.470474572E0
1.577319332E0,-2.544824600E0,-4.949576855E0,5.966227055E-1,5.597356692E0
1.582061051E0,-2.580671310E0,-4.641947269E0,-1.355929375E-1,5.312807573E0
1.586802770E0,-2.137784004E0,-4.286156654E0,-7.535227537E-1,4.848613808E0
1.591544489E0,-1.620790482E0,-4.003647804E0,-1.278827071E0,4.504614990E0
1.596286207E0,-9.117927551E-1,-3.763978004E0,-2.119111538E0,4.414694798E0
1.601027926E0,-1.796855927E-1,-3.493121624E0,-2.922538280E0,4.558005660E0
1.605769645E0,-8.053207397E-2,-3.327759981E0,-3.229149342E0,4.637658609E0
1.610511364E0,-7.480001450E-1,-3.336585522E0,-3.956220627E0,5.229148000E0
1.615253082E0,-1.802079201E0,-3.350324631E0,-4.782444000E0,6.110968433E0
1.619994801E0,-2.963904381E0,-3.307672024E0,-5.493142128E0,7.063995600E0
1.624736520E0,-3.749869347E0,-3.192115545E0,-6.187578201E0,7.908049429E0
1.629478239E0,-4.059206963E0,-2.940962315E0,-6.675068378E0,8.347631901E0
1.634219957E0,-4.528771400E0,-2.709720612E0,-7.394244671E0,9.084448824E0
1.638961676E0,-5.629737854E0,-2.588300943E0,-8.039596558E0,1.015028881E1
1.643703395E0,-6.868668556E0,-2.593044281E0,-8.799562454E0,1.146013899E1
1.648445114E0,-7.823322296E0,-2.547080517E0,-9.127943039E0,1.228866693E1
1.653186832E0,-8.565480232E0,-2.376608133E0,-9.414537430E0,1.294794319E1
1.657928551E0,-8.904241562E0,-2.012106657E0,-9.319269180E0,1.304541563E1
1.662670270E0,-8.759255409E0,-1.466497183E0,-8.909790993E0,1.258012499E1
1.667411989E0,-8.167466164E0,-9.092577696E-1,-8.629215240E0,1.191627496E1
1.672153707E0,-7.007559776E0,-4.513554573E-1,-8.252235413E0,1.083554360E1
1.676895426E0,-5.554249763E0,-1.361789405E-1,-7.675292015E0,9.475143411E0
1.681637145E0,-3.890048027E0,1.558066308E-1,-7.057081223E0,8.059723614E0
1.686378864E0,-2.411980629E0,4.195826352E-1,-6.471811771E0,6.919396487E0
1.691120582E0,-9.832677841E-1,5.328791142E-1,-5.852422714E0,5.958324203E0
1.695862301E0,2.821846008E-1,6.335340738E-1,-5.079678059E0,5.126804341E0
1.700604020E0,1.230465889E0,6.457214355E-1,-4.055492401E0,4.286959423E0
1.705345739E0,1.851857185E0,5.644798279E-1,-2.935259104E0,3.516213662E0
1.710087457E0,2.008148670E0,2.740463316E-1,-2.066384077E0,2.894426649E0
1.714829176E0,2.012891769E0,3.152540326E-2,-1.253735304E0,2.371619560E0
1.719570895E0,2.906978607E0,-4.093118310E-1,2.596390247E-1,2.947112692E0
1.724312561E0,6.825669289E0,-1.135804176E0,2.490685225E0,7.354136608E0
1.729054280E0,7.454593182E0,-1.609696865E0,2.259865284E0,7.954185980E0
1.733795999E0,7.103397369E0,-1.963028431E0,1.482419848E0,7.517267018E0
1.738537718E0,8.324027061E0,-2.464359522E0,1.226093292E0,8.767314249E0
1.743279436E0,8.907596588E0,-3.062555313E0,5.516557693E-1,9.435509849E0
1.748021155E0,8.768420219E0,-3.541554928E0,-4.947028160E-1,9.469558349E0
1.752762874E0,6.902010918E0,-3.946996212E0,-1.931101322E0,8.182034351E0
1.757504593E0,4.883381844E0,-4.336831570E0,-3.122013330E0,7.238956660E0
1.762246311E0,2.478961945E0,-4.711894512E0,-4.041048050E0,6.684105891E0
1.766988030E0,-1.137590408E-1,-5.132226467E0,-4.585494041E0,6.883272858E0
1.771729749E0,-1.561110497E0,-5.607383728E0,-4.028886318E0,7.078964841E0
1.776471468E0,-1.380846024E0,-5.935710907E0,-2.696553946E0,6.664143073E0
1.781213134E0,-7.757482529E-1,-6.108411789E0,-1.342249155E0,6.302072098E0
1.785954853E0,-1.465988159E-2,-5.942294121E0,-8.903777599E-2,5.942979224E0
1.790696572E0,7.702913284E-1,-4.987819672E0,6.555006504E-1,5.089339339E0
1.795438291E0,1.643291473E0,-3.454327583E0,8.641189337E-1,3.921668962E0
1.800180009E0,3.162368774E0,-1.778377891E0,8.293250799E-1,3.721691050E0
1.804921728E0,3.692502499E0,-1.635974646E-1,1.020740747E0,3.834481778E0
1.809663447E0,3.596747398E0,1.320803046E0,1.532031417E0,4.126527935E0
1.814405166E0,5.820047379E0,2.992903709E0,2.290134907E0,6.933624016E0
1.819146832E0,7.842000961E0,5.096153259E0,2.965758324E0,9.811395393E0
1.823888551E0,1.018966007E1,7.590634346E0,4.059167862E0,1.333880601E1
1.828630270E0,1.309730148E1,9.594068527E0,6.148738384E0,1.736065784E1
1.833371989E0,1.399405098E1,9.653284073E0,8.375353813E0,1.895167295E1
1.838113707E0,1.173647881E1,7.889058113E0,9.022595406E0,1.677466544E1
1.842855426E0,8.100265503E0,5.927553654E0,7.904590607E0,1.277625713E1
1.847597145E0,5.551305771E0,4.256913185E0,5.815154076E0,9.096940285E0
1.852338811E0,4.468916416E0,2.983272552E0,3.214537621E0,6.261340206E0
1.857080530E0,4.292772293E0,2.045164347E0,8.221706152E-1,4.825614540E0
1.861822249E0,4.458953381E0,1.351393223E0,-1.174516916E0,4.804999363E0
1.866563968E0,4.846562862E0,9.520723820E-1,-2.463401318E0,5.519416586E0
1.871305686E0,5.461445808E0,9.286167622E-1,-3.076306820E0,6.336669714E0
1.876047405E0,6.075677872E0,1.022731066E0,-3.767210722E0,7.221614574E0
1.880789072E0,5.839130878E0,1.275981903E0,-4.204878807E0,7.307844074E0
1.885530791E0,5.410848618E0,1.650417924E0,-4.475547314E0,7.213299234E0
1.890272509E0,5.187944412E0,2.201547146E0,-4.461892128E0,7.188188814E0
1.895014228E0,4.964829922E0,2.621689796E0,-4.271207333E0,7.054502507E0
1.899755947E0,4.469525337E0,3.009450436E0,-4.195224762E0,6.828862238E0
1.904497666E0,4.283144474E0,3.368380785E0,-3.985897064E0,6.751199235E0
1.909239384E0,4.184994221E0,3.686096668E0,-3.475515366E0,6.571201742E0
1.913981051E0,4.904967308E0,3.689098358E0,-2.720502853E0,6.713366277E0
1.918722770E0,5.959988594E0,3.432732582E0,-1.995736957E0,7.161569871E0
1.923464489E0,7.063809872E0,2.963122845E0,-1.496330261E0,7.804903020E0
1.928206207E0,8.986647606E0,2.199685574E0,-6.243292093E-1,9.272984351E0
1.932947926E0,1.035236263E1,1.580233097E0,1.522293091E-1,1.047338162E1
1.937689593E0,1.097057152E1,1.234401345E0,8.511818647E-1,1.107256505E1
1.942431311E0,1.089281368E1,1.059004784E0,1.692574620E0,1.107428056E1
1.947173030E0,9.752528191E0,8.278540373E-1,2.540558100E0,1.011195253E1
1.951914749E0,7.451121330E0,5.115634203E-1,3.430450439E0,8.218813566E0
1.956656468E0,4.407462120E0,1.853110343E-1,3.967476368E0,5.933037270E0
1.961398186E0,1.129268646E0,-2.282647789E-1,3.980663061E0,4.144035580E0
1.966139853E0,-2.003891945E0,-7.314721346E-1,3.085667849E0,3.751263851E0
1.970881572E0,-5.066874504E0,-1.373851776E0,1.259474039E0,5.398792531E0
1.975623291E0,-8.146773338E0,-1.999546766E0,-1.141858816E0,8.465928458E0
1.980365009E0,-1.121922874E1,-2.467233896E0,-4.374295712E0,1.229198111E1
1.985106728E0,-1.376292515E1,-2.714589596E0,-8.291376114E0,1.629521473E1
1.989848395E0,-1.612260056E1,-2.951220036E0,-1.276827431E1,2.077683270E1
1.994590114E0,-1.860174561E1,-3.186437368E0,-1.834547424E1,2.631985463E1
1.999331832E0,-2.128967285E1,-2.854202271E0,-2.459949112E1,3.265779546E1
2.004073551E0,-2.471651077E1,-2.095999241E0,-2.806224442E1,3.745382062E1
2.008815218E0,-2.868830681E1,-1.145288348E0,-2.805694580E1,4.014377711E1
2.013556936E0,-3.158111954E1,-3.439663053E-1,-2.451015091E1,3.997790542E1
2.018298655E0,-3.254697418E1,1.624329090E-1,-1.930693626E1,3.784296105E1
2.023040374E0,-3.114554214E1,3.843213320E-1,-1.353812218E1,3.396282159E1
2.027782041E0,-2.689649200E1,3.606851101E-1,-9.125823975E0,2.840478902E1
2.032523759E0,-2.225916672E1,4.773936570E-1,-7.942444324E0,2.363854542E1
2.037265478E0,-1.928362274E1,7.447224855E-1,-8.716487885E0,2.117521850E1
2.042007197E0,-1.794560623E1,8.358110189E-1,-9.901447296E0,2.051297203E1
2.046748916E0,-1.750888062E1,6.857142448E-1,-1.026055622E1,2.030542091E1
2.051490582E0,-1.712802696E1,8.323955536E-1,-9.064157486E0,1.939642083E1
2.056232301E0,-1.801044846E1,6.447708011E-1,-9.117290497E0,2.019695445E1
2.060974020E0,-1.862702751E1,1.899916977E-1,-9.342346191E0,2.083942617E1
2.065715739E0,-1.929285431E1,-4.421183467E-2,-9.728471756E0,2.160692817E1
2.070457405E0,-1.930138397E1,-1.856151670E-1,-1.027132988E1,2.186499700E1
2.075199124E0,-1.854101181E1,-3.044850230E-1,-1.107427597E1,2.159864390E1
2.079940843E0,-1.748013687E1,-2.227891386E-1,-1.187158585E1,2.113147819E1
2.084682561E0,-1.599704933E1,-8.356799930E-2,-1.313884735E1,2.070125312E1
2.089424228E0,-1.411390686E1,-1.902041137E-1,-1.460491371E1,2.031113116E1
2.094165947E0,-1.247442818E1,-2.175585926E-1,-1.567096329E1,2.003092061E1
2.098907666E0,-1.077165127E1,1.842664927E-2,-1.562234497E1,1.897594459E1
2.103649384E0,-9.280410767E0,6.902313232E-1,-1.467640114E1,1.737812400E1
2.108391051E0,-7.876476288E0,1.999230981E0,-1.341870022E1,1.568748924E1
2.113132770E0,-5.959765434E0,3.295241833E0,-1.189744186E1,1.370863034E1
2.117874489E0,-3.911634445E0,4.222004890E0,-1.023844337E1,1.174529404E1
2.122616155E0,-2.205471039E0,4.705689907E0,-8.653835297E0,1.009437890E1
2.127357874E0,-1.022517204E0,4.901052475E0,-7.089813232E0,8.679361063E0
2.132099593E0,-1.437454224E-1,4.789893627E0,-5.450010777E0,7.257159304E0
2.136841311E0,1.013716698E0,4.680964470E0,-4.052319050E0,6.273781921E0
2.141582978E0,2.523919106E0,4.601211548E0,-2.619813442E0,5.865555202E0
2.146324697E0,4.247562885E0,4.528302670E0,-8.393564224E-1,6.265128469E0
2.151066416E0,6.014741898E0,4.351784229E0,8.369956017E-1,7.470991079E0
2.155808134E0,7.663563728E0,4.040559292E0,2.229773283E0,8.945849166E0
2.160549801E0,9.232892036E0,3.546994686E0,3.614507675E0,1.053053334E1
2.165291520E0,1.029768658E1,3.206241369E0,4.175204277E0,1.156523512E1
2.170033239E0,1.131217861E1,2.926676035E0,4.525251865E0,1.253031213E1
2.174774905E0,1.244777489E1,2.768641472E0,4.988950729E0,1.369314079E1
2.179516624E0,1.315174103E1,2.685593843E0,5.332151890E0,1.444342584E1
2.184258343E0,1.364299011E1,2.286909580E0,5.987854958E0,1.507367048E1
2.189000061E0,1.498677540E1,1.682096720E0,9.290157318E0,1.771270474E1
2.193741728E0,1.584947395E1,8.028399348E-1,1.277535725E1,2.037302455E1
2.198483447E0,1.585538864E1,2.593947649E-1,1.393573189E1,2.111078534E1
2.203225166E0,1.543162060E1,-1.672237515E-1,1.351490021E1,2.051378575E1
2.207966832E0,1.320763397E1,-8.013325930E-1,1.194868374E1,1.782848205E1
2.212708551E0,1.269520378E1,-9.811444283E-1,1.111219788E1,1.690005281E1
2.217450270E0,1.412539673E1,-6.052822471E-1,1.067065048E1,1.771315842E1
2.222191936E0,1.515590954E1,6.119981408E-2,1.036911488E1,1.836365657E1
2.226933655E0,1.616661263E1,6.358202696E-1,1.038307190E1,1.922425066E1
2.231675374E0,1.695898438E1,8.403197527E-1,1.060447311E1,2.001919425E1
2.236417041E0,1.721268845E1,6.050471067E-1,1.085311794E1,2.035762497E1
2.241158759E0,1.697272301E1,-2.606618404E-2,1.126247311E1,2.036951905E1
2.245900478E0,1.682516289E1,-7.367749214E-1,1.172534657E1,2.052103057E1
2.250642197E0,1.630251884E1,-1.388869286E0,1.168704414E1,2.010691621E1
2.255383864E0,1.588925171E1,-1.865560770E0,1.115507984E1,1.950344696E1
2.260125582E0,1.544573212E1,-2.329743385E0,1.004240799E1,1.857009163E1
2.264867301E0,1.444109917E1,-2.591336966E0,8.784722328E0,1.710063504E1
2.269608968E0,1.260367012E1,-2.779631138E0,7.508809090E0,1.493188078E1
2.274350686E0,1.066834259E1,-2.971430779E0,6.211515427E0,1.269747449E1
2.279092405E0,9.132075310E0,-3.218605042E0,5.037328720E0,1.091461857E1
2.283834072E0,7.972454071E0,-3.438214540E0,3.957962513E0,9.541845230E0
2.288575791E0,7.104878426E0,-3.518562794E0,2.833352089E0,8.419469439E0
2.293317509E0,6.301727772E0,-3.481677532E0,2.117957592E0,7.504638280E0
2.298059176E0,5.926122189E0,-3.704789877E0,1.753146887E0,7.205408818E0
2.302800895E0,5.688487530E0,-3.833543777E0,1.495318890E0,7.020749736E0
2.307542614E0,5.672861099E0,-3.799054623E0,1.202936888E0,6.932620445E0
2.312284280E0,5.714924812E0,-3.657062531E0,9.773943424E-1,6.854908582E0
2.317025999E0,5.882318497E0,-3.281556606E0,9.968369007E-1,6.809109227E0
2.321767718E0,6.399850845E0,-2.581747532E0,1.234834075E0,7.010586734E0
2.326509384E0,7.092482567E0,-1.755751014E0,1.640168071E0,7.488399154E0
2.331251103E0,7.768724442E0,-1.072781086E0,1.896786451E0,8.068564776E0
2.335992822E0,8.533932686E0,-5.722256303E-1,1.643064141E0,8.709483856E0
2.340734489E0,9.242233276E0,-2.626576424E-1,1.068188548E0,9.307464303E0
2.345476207E0,9.781097412E0,-7.895058393E-2,6.397563219E-1,9.802315437E0
2.350217926E0,1.017172337E1,1.535983384E-1,5.151349306E-1,1.018591737E1
2.354959593E0,1.035176659E1,3.294554949E-1,5.093979836E-1,1.036952741E1
2.359701311E0,1.054830074E1,4.867669046E-1,5.089157820E-1,1.057178253E1
2.364443030E0,1.084000587E1,6.686362028E-1,5.165183544E-1,1.087288338E1
2.369184697E0,1.115017414E1,9.233098626E-1,6.421132088E-1,1.120674769E1
2.373926416E0,1.175110626E1,1.292175412E0,8.613531590E-1,1.185327571E1
2.378668134E0,1.228835201E1,1.594360113E0,1.201182604E0,1.244943449E1
2.383409801E0,1.274015427E1,1.852029562E0,1.529286027E0,1.296457712E1
2.388151520E0,1.299166489E1,1.974599123E0,1.835536003E0,1.326844341E1
2.392893239E0,1.311963844E1,2.016787529E0,2.113728285E0,1.344098925E1
2.397634905E0,1.316737843E1,1.987483740E0,2.385677814E0,1.352854038E1
2.402376624E0,1.310186195E1,1.976637840E0,2.602673054E0,1.350332518E1
2.407118291E0,1.303588867E1,1.938228607E0,2.751638889E0,1.346338145E1
2.411860009E0,1.281439495E1,1.869730949E0,2.893492699E0,1.326939757E1
2.416601728E0,1.254549217E1,1.859534740E0,3.131567717E0,1.306345895E1
2.421343395E0,1.222956181E1,1.888125181E0,3.473229885E0,1.285264659E1
2.426085114E0,1.179049492E1,2.043309450E0,3.918686867E0,1.259154441E1
2.430826832E0,1.114502144E1,2.218888760E0,4.387719631E0,1.218142248E1
2.435568499E0,1.039863110E1,2.404364824E0,4.748712063E0,1.168172783E1
2.440310218E0,9.618204117E0,2.520046949E0,4.761655807E0,1.102423934E1
2.445051936E0,8.839328766E0,2.649469376E0,4.550945282E0,1.028904874E1
2.449793603E0,8.202644348E0,2.649498463E0,4.260114193E0,9.615185351E0
2.454535322E0,7.674146652E0,2.587755203E0,3.910566092E0,8.993415980E0
2.459277041E0,7.294001579E0,2.484099865E0,3.545519829E0,8.481976305E0
2.464018707E0,6.870632648E0,2.386834383E0,3.310731411E0,7.991465062E0
2.468760426E0,6.473362446E0,2.296353340E0,3.026603937E0,7.505863802E0
2.473502145E0,5.970825195E0,2.122061014E0,2.705853939E0,6.890249778E0
2.478243811E0,5.442286491E0,1.768576741E0,2.278234243E0,6.159277329E0
2.482985530E0,4.684904575E0,1.329104662E0,1.812018633E0,5.195985143E0
2.487727197E0,3.727997303E0,7.503117323E-1,1.418997645E0,4.058877419E0
2.492468916E0,2.481374741E0,1.409755349E-1,1.079454660E0,2.709671026E0
2.497210634E0,1.029528618E0,-3.097743392E-1,7.179563046E-1,1.292807245E0
2.501952301E0,-8.226709366E-1,-7.009962201E-1,1.936873794E-1,1.098042791E0
2.506694020E0,-3.188613892E0,-1.113885880E0,-3.769897521E-1,3.398546980E0
2.511435739E0,-5.710958481E0,-1.657874823E0,-1.009905100E0,6.031874005E0
2.516177405E0,-7.636867523E0,-2.138493061E0,-1.700637341E0,8.110922605E0
2.520919124E0,-9.280975342E0,-2.494936466E0,-2.364897966E0,9.897168972E0
2.525660843E0,-8.916963577E0,-1.995407820E0,-1.306343198E0,9.230407594E0
2.530402509E0,-8.310643196E0,-1.585800052E0,-1.007398129E0,8.520352289E0
2.535144228E0,-6.067785263E0,-9.299094677E-1,4.416044950E-1,6.154491380E0
2.539885895E0,-5.644728661E0,1.379138827E-1,3.967476189E-1,5.660334846E0
2.544627614E0,-6.206403732E0,1.495592594E0,-1.817456484E0,6.637724954E0
2.549369332E0,-7.923288345E0,3.976668596E0,-4.121606350E0,9.776503988E0
2.554110999E0,-1.217196274E1,5.113365173E0,-8.347617149E0,1.562004777E1
2.558852718E0,-2.183351707E1,4.586083889E0,-1.289136219E1,2.576668105E1
2.563594436E0,-3.406417465E1,2.109974623E0,-1.746698189E1,3.833947631E1
2.568336103E0,-4.453297806E1,-1.353888988E0,-2.199793625E1,4.968831200E1
2.573077822E0,-5.133493805E1,-4.823768616E0,-2.578293228E1,5.764810669E1
2.577819541E0,-5.512233734E1,-7.784928322E0,-2.786121178E1,6.225210281E1
2.582561207E0,-5.966392136E1,-9.226281166E0,-2.700356865E1,6.613698281E1
2.587302926E0,-6.229774094E1,-9.075934410E0,-2.434649658E1,6.749913338E1
2.592044593E0,-6.068780899E1,-7.927218437E0,-2.012977028E1,6.442870947E1
2.596786311E0,-5.716735840E1,-5.961617947E0,-1.567470932E1,5.957637340E1
2.601528030E0,-5.287408447E1,-3.743376017E0,-1.351524162E1,5.470231649E1
2.606269697E0,-4.756484222E1,-1.962261438E0,-1.189289951E1,4.906837826E1
2.611011416E0,-4.042685699E1,-6.295001507E-2,-9.595770836E0,4.155013294E1
2.615753134E0,-3.392466736E1,1.736411810E0,-6.664536953E0,3.461667567E1
2.620494801E0,-2.813073921E1,3.133936167E0,-6.099447727E0,2.895450409E1
2.625236520E0,-2.302191353E1,4.084096909E0,-7.372400284E0,2.451613012E1
2.629978239E0,-1.856547546E1,4.806150436E0,-8.959562302E0,2.116718493E1
2.634719905E0,-1.535133457E1,5.247849464E0,-1.131070232E1,1.977714297E1
2.639461624E0,-1.476809311E1,4.610952854E0,-1.806073570E1,2.378124543E1
2.644203291E0,-1.263521004E1,4.194814205E0,-2.485863686E1,2.819923448E1
2.648945009E0,-8.671134949E0,4.067743778E0,-3.025345612E1,3.173336931E1
2.653686728E0,-4.048186302E0,4.095785141E0,-3.397894669E1,3.446348918E1
2.658428395E0,2.627134323E-1,4.001140118E0,-3.450428772E1,3.473649395E1
2.663170114E0,3.430394173E0,3.279707909E0,-3.168523407E1,3.203869764E1
2.667911832E0,5.806262970E0,2.367892504E0,-2.698426056E1,2.770324751E1
2.672653499E0,7.398218632E0,1.674201727E0,-2.063731384E1,2.198716246E1
2.677395218E0,7.990625381E0,1.126584291E0,-1.369487762E1,1.589556414E1
2.682136936E0,7.081840515E0,1.099620342E0,-7.231381893E0,1.018108609E1
2.686878603E0,6.544626713E0,1.099771857E0,-2.379018307E0,7.049919507E0
2.691620322E0,6.273784637E0,1.133520842E0,1.371711493E0,6.521260277E0
2.696361989E0,6.084773064E0,1.105328679E0,3.660760164E0,7.186611142E0
2.701103707E0,6.221807003E0,8.911679387E-1,4.720813274E0,7.860734104E0
2.705845426E0,6.580822945E0,4.544335902E-1,5.315926075E0,8.471883530E0
2.710587093E0,7.083992004E0,3.641306981E-2,5.916090488E0,9.229539279E0
2.715328811E0,7.420946598E0,-2.984492183E-1,6.727272511E0,1.002076423E1
2.720070530E0,7.693591595E0,-7.443502545E-1,8.220046997E0,1.128337634E1
2.724812197E0,7.168827534E0,-1.713703275E0,1.027907085E1,1.264864280E1
2.729553916E0,7.883041382E0,-4.328169346E0,1.862945557E1,2.068651749E1
2.734295582E0,8.788470268E0,-5.952541828E0,2.129819679E1,2.379670461E1
2.739037301E0,9.560509682E0,-6.813604355E0,2.461529541E1,2.727162111E1
2.743779020E0,1.246327209E1,-6.954134464E0,2.927179718E1,3.256579874E1
2.748520686E0,1.500099182E1,-6.052725315E0,3.188910675E1,3.575724219E1
2.753262405E0,1.724712372E1,-4.484801769E0,3.302499008E1,3.752634666E1
2.758004124E0,1.952430725E1,-3.035011053E0,3.325331116E1,3.868064850E1
2.762745791E0,1.812526512E1,-2.222320318E0,3.023099518E1,3.531822494E1
2.767487509E0,1.729803848E1,-1.392228723E0,2.689717674E1,3.200966343E1
2.772229176E0,1.869170380E1,-5.024046302E-1,2.476435471E1,3.103071809E1
2.776970895E0,1.982160187E1,1.410309412E-2,2.154963303E1,2.927939178E1
2.781712614E0,2.103985596E1,2.724649906E-1,1.869907761E1,2.814969412E1
2.786454280E0,2.104187012E1,2.146275640E-1,1.602874374E1,2.645235319E1
2.791195999E0,2.046395111E1,-4.043886065E-2,1.369364548E1,2.462297417E1
2.795937666E0,1.866084099E1,-4.197609127E-1,1.151261711E1,2.193042495E1
2.800679384E0,1.568719292E1,-7.609716654E-1,9.730232239E0,1.847551133E1
2.805421103E0,1.253395557E1,-1.123250961E0,8.372987747E0,1.511517975E1
2.810162770E0,9.448722839E0,-1.490446568E0,7.228891373E0,1.198985674E1
2.814904489E0,5.803186893E0,-1.600530148E0,6.732645035E0,9.031455256E0
2.819646207E0,2.546536922E0,-1.820752501E0,5.851161957E0,6.635969124E0
2.824387874E0,-3.964614868E-1,-2.417250156E0,4.031095505E0,4.716991732E0
2.829129593E0,-2.862007141E0,-1.913082600E0,2.885444641E0,4.491854927E0
2.833871311E0,-3.372076988E0,-2.361172915E0,1.590801477E0,4.413240316E0
2.838612978E0,-2.634309769E0,-3.315891027E0,2.436206341E-1,4.241942041E0
2.843354697E0,-1.349546432E0,-4.350918293E0,-7.530097961E-1,4.617227449E0
2.848096364E0,7.287883759E-1,-5.036944866E0,-1.386722565E0,5.274935597E0
2.852838082E0,3.435299873E0,-5.316752434E0,-1.083905220E0,6.422148565E0
2.857579801E0,5.441461563E0,-5.222270012E0,-2.128534317E-1,7.544992684E0
2.862321468E0,6.064556122E0,-4.663195133E0,1.005254507E0,7.715877554E0
2.867063186E0,6.556467056E0,-4.397656441E0,2.389206886E0,8.248330254E0
2.871804853E0,6.649885654E0,-4.153203964E0,3.458300352E0,8.569126193E0
2.876546572E0,6.546809196E0,-3.912423134E0,3.947539091E0,8.587830361E0
2.881288291E0,6.177051544E0,-3.537913084E0,3.558466434E0,7.958359010E0
2.886029957E0,5.693561554E0,-2.910759449E0,2.415496588E0,6.835480049E0
2.890771676E0,5.722343922E0,-2.055757284E0,9.444544315E-1,6.153320416E0
2.895513395E0,6.190238476E0,-8.511567712E-1,6.198883057E-3,6.248484509E0
2.900255061E0,7.157780647E0,3.217355013E-1,6.363105774E-2,7.165290395E0
2.904996780E0,8.423581123E0,1.167324543E0,5.029969215E-1,8.518941920E0
2.909738447E0,9.408634186E0,1.593498945E0,1.065737247E0,9.601949386E0
2.914480166E0,1.033395481E1,2.014561892E0,1.575792074E0,1.064575983E1
2.919221884E0,1.123209953E1,2.396959066E0,2.039952040E0,1.166477077E1
2.923963551E0,1.190397930E1,2.637727261E0,2.486039639E0,1.244358153E1
2.928705270E0,1.229448318E1,2.729731083E0,2.855272293E0,1.291349404E1
2.933446989E0,1.249893761E1,2.756457329E0,3.142148018E0,1.317932443E1
2.938188655E0,1.236662102E1,2.751031637E0,3.507905483E0,1.314560350E1
2.942930374E0,1.204153538E1,2.643800497E0,4.024009705E0,1.296845825E1
2.947672093E0,1.177503967E1,2.447215557E0,4.828478813E0,1.295973113E1
2.952413759E0,1.145188522E1,2.118881941E0,5.728001595E0,1.297864932E1
2.957155478E0,1.118357468E1,1.774284720E0,6.578652382E0,1.309576634E1
2.961897197E0,1.087347126E1,1.514248371E0,7.179600239E0,1.311762116E1
2.966638864E0,1.032986927E1,1.438874960E0,7.422890186E0,1.280140067E1
2.971380582E0,9.534048080E0,1.669287682E0,7.486261368E0,1.223636807E1
2.976122249E0,8.763713837E0,2.049038649E0,7.504154205E0,1.171808730E1
2.980863968E0,8.303319931E0,2.479601860E0,7.390747070E0,1.138932349E1
2.985605686E0,8.159686089E0,2.848536968E0,7.162810802E0,1.122499437E1
2.990347353E0,8.072199821E0,3.139094353E0,6.743086815E0,1.097649958E1
2.995089072E0,8.172337532E0,2.988475323E0,6.215311527E0,1.069337098E1
2.999830791E0,8.238116264E0,2.950150490E0,5.888642311E0,1.054732458E1
3.004572457E0,8.188861847E0,2.978965044E0,5.763565540E0,1.044750587E1
3.009314176E0,8.005638123E0,2.998910666E0,5.815703392E0,1.033954123E1
3.014055895E0,7.920019627E0,2.979648113E0,5.952812195E0,1.034606141E1
3.018797561E0,7.723114014E0,2.977112293E0,6.284437180E0,1.039248952E1
3.023539280E0,7.393020630E0,2.877429247E0,6.699445724E0,1.038358927E1
3.028280947E0,7.120752811E0,2.669694901E0,7.024315834E0,1.035245886E1
3.033022666E0,6.903524876E0,2.261532784E0,7.109377861E0,1.016446948E1
3.037764384E0,6.796207428E0,1.682461858E0,7.122206211E0,9.987238588E0
3.042506051E0,6.700713158E0,9.518218040E-1,7.062541008E0,9.781871347E0
3.047247770E0,6.528858185E0,1.504898071E-1,7.020480156E0,9.588314659E0
3.051989489E0,5.907869339E0,-6.799013019E-1,6.833689213E0,9.058945533E0
3.056731155E0,5.063031197E0,-1.651908159E0,6.460306168E0,8.372493132E0
3.061472874E0,4.095740795E0,-2.639373779E0,5.512331009E0,7.357117626E0
3.066214593E0,3.363841057E0,-3.022755384E0,3.845880985E0,5.936604865E0
3.070956259E0,2.971092701E0,-2.636241436E0,1.190764666E0,4.146695219E0
3.075697978E0,2.239091396E0,-1.793218136E0,-2.061566830E0,3.532593857E0
3.080439697E0,6.339168549E-1,-7.870274782E-1,-5.383234024E0,5.477268607E0
3.085181364E0,-1.416232109E0,4.421815276E-1,-8.004565239E0,8.140903055E0
3.089923082E0,-4.172019005E0,1.087694168E0,-8.346311569E0,9.394133169E0
3.094664749E0,-6.955227852E0,1.319638610E0,-7.881168365E0,1.059384044E1
3.099406468E0,-8.567230225E0,1.860683084E0,-8.767284393E0,1.239858262E1
3.104148186E0,-7.734725952E0,2.313802004E0,-1.202234173E1,1.448158713E1
3.108889853E0,-7.436367035E0,3.663344622E0,-1.710572243E1,1.900856092E1
3.113631572E0,-7.315989494E0,5.465511322E0,-2.178183937E1,2.361872229E1
3.118373291E0,-6.918994904E0,7.147993088E0,-2.502413940E1,2.692905213E1
3.123114957E0,-7.473670006E0,8.124490738E0,-2.665296745E1,2.884863545E1
3.127856676E0,-9.244268417E0,8.035579681E0,-2.613193512E1,2.886009481E1
3.132598395E0,-1.273978519E1,6.675405025E0,-2.210602570E1,2.637308346E1
3.137340061E0,-1.798284531E1,4.306373119E0,-1.614273262E1,2.454618893E1
3.142081780E0,-2.539137459E1,1.565163374E0,-1.117999840E1,2.778783914E1
3.146823499E0,-3.634915924E1,-1.658614635E0,-2.240203381E0,3.645587595E1
3.151565166E0,-4.781941605E1,-5.849330902E0,3.329903841E0,4.829078051E1
3.156306884E0,-5.587256241E1,-8.630053520E0,-1.192183495E0,5.654769982E1
3.161048603E0,-5.358010864E1,-8.571551323E0,-1.246472549E1,5.567467033E1
3.165790270E0,-4.397846222E1,-6.223955631E0,-2.420829010E1,5.058541363E1
3.170531989E0,-3.020390701E1,-3.046139002E0,-3.364808655E1,4.531830414E1
3.175273707E0,-1.695760345E1,-2.573751211E-1,-4.081344604E1,4.419687698E1
3.180015374E0,-9.894840240E0,2.237119198E0,-4.560779572E1,4.672240999E1
3.184757093E0,-9.992376328E0,5.204463005E0,-4.771294022E1,4.902508219E1
3.189498811E0,-1.432859993E1,8.142464638E0,-4.582092667E1,4.869461805E1
3.194240478E0,-1.696033859E1,1.060125065E1,-4.120269775E1,4.580067579E1
3.198982197E0,-1.738206673E1,1.222752285E1,-3.646681595E1,4.220754937E1
3.203723916E0,-1.726801872E1,1.283806419E1,-3.301712036E1,3.940977797E1
3.208465582E0,-1.715445328E1,1.256562042E1,-3.094279480E1,3.754499479E1
3.213207301E0,-1.655506134E1,9.554091454E0,-2.981256294E1,3.541383386E1
3.217949020E0,-1.942729950E1,5.952942848E0,-2.679183960E1,3.362529053E1
3.222690686E0,-2.109421921E1,2.966546059E0,-2.324435043E1,3.152881708E1
3.227432405E0,-2.025183678E1,1.091426969E0,-1.779933929E1,2.698415433E1
3.232174124E0,-1.752489853E1,8.556754887E-2,-1.160976791E1,2.102180062E1
3.236915791E0,-1.458634377E1,-7.219574451E-1,-6.020492554E0,1.579648624E1
3.241657509E0,-1.183829117E1,-1.695590377E0,-1.830631733E0,1.209840391E1
3.246399228E0,-9.339930534E0,-2.432905197E0,5.890293121E-1,9.669554572E0
3.251140895E0,-6.894083977E0,-3.168891668E0,1.649119854E0,7.764654827E0
3.255882614E0,-4.215417862E0,-3.814489365E0,2.273520947E0,6.122824051E0
3.260624332E0,-1.137424469E0,-4.362947941E0,3.311842442E0,5.594403410E0
3.265365999E0,1.817678928E0,-4.829423904E0,4.395411491E0,6.778416785E0
3.270107718E0,4.571437836E0,-5.208323479E0,5.095326424E0,8.601571293E0
3.274849436E0,7.361415386E0,-5.854796410E0,5.735804558E0,1.101673869E1
3.279591103E0,9.174562454E0,-6.114450932E0,5.706165314E0,1.241448465E1
3.284332822E0,1.078629112E1,-6.456484795E0,6.375611305E0,1.409534290E1
3.289074541E0,1.154119110E1,-6.738456726E0,6.781017780E0,1.498626348E1
3.293816259E0,1.142386341E1,-7.145992279E0,6.612098694E0,1.500965389E1
3.298557926E0,1.103370667E1,-7.993454933E0,7.429755688E0,1.551899720E1
3.303299645E0,8.342366219E0,-7.776000023E0,7.175887585E0,1.347422032E1
3.308041364E0,5.647440910E0,-7.336719990E0,9.593322754E0,1.333240003E1
3.312783030E0,3.793287754E0,-7.039526939E0,1.264465427E1,1.496099105E1
3.317524749E0,3.104883671E0,-6.727436066E0,1.427540398E1,1.608371404E1
3.322266468E0,3.160997868E0,-6.458775997E0,1.411546135E1,1.584152594E1
3.327008134E0,4.144346237E0,-5.828613281E0,1.244208908E1,1.435109470E1
3.331749853E0,5.549948692E0,-4.641280174E0,1.040839577E1,1.267588713E1
3.336491572E0,6.725660801E0,-4.545696259E0,7.673004150E0,1.117017728E1
3.341233239E0,8.512055397E0,-4.743366241E0,8.016198158E0,1.261800473E1
3.345974957E0,1.056761932E1,-4.948943615E0,1.086771584E1,1.594596716E1
3.350716676E0,1.393267059E1,-4.174135685E0,1.459841156E1,2.060719143E1
3.355458343E0,1.721845245E1,-3.147583485E0,1.874708557E1,2.564830607E1
3.360200061E0,1.859155655E1,-2.401028156E0,2.258745003E1,2.935308859E1
3.364941780E0,1.791954422E1,-2.030771255E0,2.387230301E1,2.991857196E1
3.369683447E0,1.614953613E1,-2.121662140E0,2.260510445E1,2.786215560E1
3.374425166E0,1.456697941E1,-1.888596535E0,2.050013161E1,2.521941875E1
3.379166884E0,1.297183800E1,-1.410550237E0,1.830278778E1,2.247777288E1
3.383908551E0,1.249404526E1,-1.225275278E0,1.631508636E1,2.058602704E1
3.388650270E0,1.268130302E1,-1.148812175E0,1.487828636E1,1.958312082E1
3.393391989E0,1.288418388E1,-8.533520699E-1,1.417265701E1,1.917275700E1
3.398133655E0,1.241956329E1,-1.277770996E-1,1.343742561E1,1.829825911E1
3.402875374E0,1.122936916E1,8.519829512E-1,1.276269817E1,1.702090102E1
3.407617093E0,9.713111877E0,1.785082579E0,1.215575695E1,1.566184820E1
3.412358811E0,8.230111122E0,2.576224804E0,1.150182915E1,1.437580388E1
3.417100478E0,5.497401237E0,1.387483239E0,1.000776005E1,1.150225157E1
3.421842197E0,4.025122166E0,9.762419462E-1,6.986443520E0,8.121887086E0
3.426583916E0,3.786462307E0,1.444595337E0,4.170773983E0,5.815454248E0
3.431325582E0,3.239016533E0,1.062824249E0,2.040503979E0,3.972968660E0
3.436067301E0,3.029134274E0,1.013861895E0,5.818607807E-1,3.246865004E0
3.440809020E0,3.320106506E0,1.187126517E0,-2.365849018E-1,3.533885821E0
3.445550686E0,3.874929905E0,1.691201806E0,-6.833877563E-1,4.282786960E0
3.450292405E0,4.474302769E0,2.505668879E0,-1.470664263E0,5.334849123E0
3.455034124E0,4.948027134E0,3.545022964E0,-2.618790865E0,6.626328239E0
3.459775843E0,4.361439705E0,4.520029068E0,-3.477152586E0,7.179373871E0
3.464517509E0,5.348085403E0,5.324837685E0,-4.157027245E0,8.616077377E0
3.469259228E0,7.177145004E0,6.057097912E0,-4.544789791E0,1.043335803E1
3.474000947E0,8.908485413E0,6.563148022E0,-3.986208916E0,1.176120257E1
3.478742614E0,1.053066254E1,6.728405952E0,-2.981176376E0,1.284732317E1
3.483484332E0,1.151084709E1,6.234209538E0,-2.268990040E0,1.328583024E1
3.488226051E0,1.136019325E1,5.000253677E0,-1.928287983E0,1.256084480E1
3.492967770E0,1.065745449E1,3.487639189E0,-2.041894436E0,1.139799527E1
3.497709436E0,1.002154446E1,2.238283634E0,-2.351798773E0,1.053433550E1
3.502451155E0,9.572959900E0,1.416339636E0,-2.587816715E0,1.001720393E1
3.507192874E0,9.197042465E0,9.688440561E-1,-2.514165401E0,9.583594137E0
3.511934541E0,9.108980179E0,6.715893149E-1,-2.248730421E0,9.406452074E0
3.516676259E0,9.073742867E0,6.117632985E-1,-1.666523933E0,9.245775574E0
3.521417978E0,9.279226303E0,7.260536551E-1,-9.111905098E-1,9.352083342E0
3.526159645E0,9.738126755E0,1.006348848E0,4.975843430E-2,9.790113717E0
3.530901364E0,1.007355022E1,1.329002500E0,8.064925671E-1,1.019279608E1
3.535643082E0,1.039698982E1,1.677551985E0,1.284396887E0,1.060948884E1
3.540384801E0,1.080338383E1,2.045771599E0,1.570503712E0,1.110696923E1
3.545126468E0,1.134504890E1,2.435797930E0,1.742503762E0,1.173369360E1
3.549868186E0,1.160123062E1,2.499020815E0,2.062889814E0,1.204529665E1
3.554609905E0,1.149400520E1,2.531358719E0,2.615292311E0,1.205652050E1
3.559351572E0,1.122573185E1,2.618461609E0,3.373982430E0,1.201070998E1
3.564093291E0,1.076985741E1,2.659662962E0,4.092763424E0,1.182431174E1
3.568835009E0,1.010878277E1,2.567625284E0,4.719415665E0,1.144784141E1
3.573576728E0,9.293152809E0,2.392844200E0,5.086067200E0,1.086077677E1
3.578318395E0,8.696133614E0,2.181091309E0,4.951432705E0,1.024190339E1
3.583060114E0,8.539718628E0,2.117048979E0,4.373439789E0,9.825256547E0
3.587801832E0,8.614925385E0,2.193666697E0,3.772047997E0,9.656990165E0
3.592543499E0,8.702932358E0,2.312578440E0,3.267470837E0,9.579426723E0
3.597285218E0,8.881239891E0,2.480327129E0,3.105943203E0,9.730124760E0
3.602026936E0,9.196422577E0,2.619676113E0,3.420426369E0,1.015559982E1
3.606768655E0,9.578639984E0,2.723512650E0,4.371947765E0,1.087574330E1
3.611510322E0,9.923104286E0,2.637365818E0,5.780978203E0,1.178318319E1
3.616252041E0,1.001066494E1,2.230747700E0,7.177805901E0,1.251840826E1
3.620993759E0,9.939845085E0,1.645074964E0,8.279813766E0,1.304078632E1
3.625735426E0,1.013588333E1,8.513118029E-1,9.084946632E0,1.363807604E1
3.630477145E0,1.020322800E1,9.257692099E-2,9.486717224E0,1.393241672E1
3.635218864E0,9.880955696E0,-4.842261374E-1,9.569293022E0,1.376368880E1
3.639960582E0,9.339160919E0,-7.728340030E-1,9.288719177E0,1.319460128E1
3.644702249E0,8.568932533E0,-8.651804924E-1,8.656107903E0,1.221078810E1
3.649443968E0,7.886907578E0,-9.146299362E-1,7.783658028E0,1.111868658E1
3.654185686E0,7.247667313E0,-1.102614999E0,7.168311119E0,1.025324951E1
3.658927353E0,6.196316719E0,-1.321338177E0,6.630058765E0,9.170493700E0
3.663669072E0,4.847243786E0,-1.711859465E0,6.231889725E0,8.078532335E0
3.668410791E0,3.508062840E0,-2.353023052E0,5.905999184E0,7.261132744E0
3.673152509E0,2.258828163E0,-3.089504004E0,5.342695236E0,6.572041695E0
3.677894176E0,8.899555206E-1,-3.802417755E0,4.452702999E0,5.922580992E0
3.682635895E0,-8.905782700E-1,-4.319019794E0,3.640798092E0,5.718607557E0
3.687377614E0,-3.295074463E0,-4.470758915E0,3.265046835E0,6.442494224E0
3.692119332E0,-6.033472061E0,-5.395153999E0,3.446741581E0,8.797187011E0
3.696860999E0,-9.115695000E0,-6.680335999E0,3.560831070E0,1.184914775E1
3.701602718E0,-1.314639568E1,-7.919443130E0,3.936691999E0,1.584433157E1
3.706344436E0,-1.867273712E1,-9.917381287E0,3.737796783E0,2.147083343E1
3.711086103E0,-2.506049728E1,-1.207719231E1,2.471108198E0,2.792836325E1
3.715827822E0,-3.005591202E1,-1.294461155E1,1.185708046E-1,3.272514132E1
3.720569541E0,-3.345645905E1,-1.123611736E1,-1.041388035E1,3.679719947E1
3.725311259E0,-3.563097763E1,-8.238128662E0,-2.734154320E1,4.566172703E1
3.730052926E0,-3.538009262E1,-5.250170231E0,-4.927971268E1,6.089175086E1
3.734794645E0,-3.873566055E1,-2.688873291E0,-6.803239441E1,7.833318663E1
3.739536364E0,-4.501774597E1,2.577518821E-1,-7.103197479E1,8.409640498E1
3.744278082E0,-4.861773300E1,3.545923233E0,-7.113811493E1,8.623739867E1
3.749019749E0,-4.114672852E1,7.450394630E0,-6.675569153E1,7.877108606E1
3.753761468E0,-3.039523506E1,1.041417503E1,-5.376264954E1,6.263184367E1
3.758503186E0,-2.141308594E1,1.202089977E1,-4.348574448E1,4.994028688E1
3.763244853E0,-1.483978081E1,1.280176067E1,-3.625060654E1,4.120935143E1
3.767986572E0,-1.071724510E1,1.290428352E1,-3.072821808E1,3.500861697E1
3.772728291E0,-9.019306183E0,1.225589275E1,-2.719875717E1,3.116612236E1
3.777470009E0,-1.092700577E1,1.040726948E1,-2.546928978E1,2.960397667E1
3.782211676E0,-1.560669708E1,7.770547867E0,-2.539340591E1,3.080219914E1
3.786953395E0,-2.095779419E1,4.836157799E0,-2.488220978E1,3.288984529E1
3.791695114E0,-2.413906288E1,1.893733978E0,-2.309269142E1,3.345972179E1
3.796436780E0,-2.400255203E1,7.537899017E-1,-2.312691879E1,3.333984217E1
3.801178499E0,-2.151722717E1,2.972466946E-1,-2.169137573E1,3.055479016E1
3.805920218E0,-1.718461990E1,2.724337578E-2,-1.945321465E1,2.595649174E1
3.810661936E0,-1.326227951E1,4.130483866E-1,-1.554114246E1,2.043491561E1
3.815403603E0,-1.028365707E1,1.304884672E0,-1.136074257E1,1.537929773E1
3.820145322E0,-7.721114159E0,2.511918306E0,-7.145440578E0,1.081585219E1
3.824887041E0,-5.503340721E0,3.581447840E0,-3.242183685E0,7.322928565E0
3.829628707E0,-3.349791527E0,3.897003651E0,-1.339189053E0,5.310477196E0
3.834370426E0,-3.861904144E-2,3.536788702E0,7.462835312E-2,3.537786758E0
3.839112145E0,3.675888538E0,3.524632215E0,1.730864525E0,5.378762014E0
3.843853864E0,6.225492954E0,3.446562290E0,3.225765467E0,7.812881478E0
3.848595530E0,7.636778831E0,2.539794207E0,3.542464018E0,8.793178996E0
3.853337249E0,8.469204903E0,6.833032370E-1,3.504707098E0,9.191153727E0
3.858078968E0,1.037526894E1,-1.425830960E0,5.487915039E0,1.182355323E1
3.862820634E0,1.205140018E1,-3.288728952E0,6.767073154E0,1.420722575E1
3.867562353E0,1.351994228E1,-4.273085117E0,9.029160500E0,1.680993263E1
3.872304072E0,1.496068382E1,-4.671537399E0,1.590270805E1,2.232804169E1
3.877045739E0,1.675374985E1,-5.392870426E0,2.221756172E1,2.834415697E1
3.881787457E0,1.796397400E1,-5.957879543E0,2.712559700E1,3.307565121E1
3.886529176E0,1.941983032E1,-6.569011688E0,3.110349083E1,3.725196459E1
3.891270895E0,1.947573090E1,-7.867565632E0,3.425588608E1,4.018293685E1
3.896012561E0,1.520602131E1,-1.141096973E1,3.609108353E1,4.079215151E1
3.900754280E0,1.197627068E1,-1.308193684E1,3.530770493E1,3.951205079E1
3.905495999E0,1.353689003E1,-1.128751659E1,3.444379425E1,3.869147690E1
3.910237666E0,1.509798336E1,-9.445099831E0,3.342520905E1,3.787352125E1
3.914979384E0,1.719421387E1,-7.287889004E0,3.243799973E1,3.742964257E1
3.919721103E0,1.947590065E1,-4.586763382E0,3.085399628E1,3.677387919E1
3.924462770E0,2.009722710E1,-2.013255358E0,2.797136688E1,3.450143619E1
3.929204489E0,1.805985260E1,-2.582827210E-1,2.328254318E1,2.946696121E1
3.933946207E0,1.445593357E1,4.611700177E-1,1.821023941E1,2.325509649E1
3.938687874E0,1.162353611E1,5.096913576E-1,1.361241913E1,1.790710282E1
3.943429593E0,9.448962212E0,6.255865097E-3,9.438089371E0,1.335516593E1
3.948171311E0,7.114932060E0,-8.556168079E-1,5.585144043E0,9.085602474E0
3.952912978E0,4.538470745E0,-1.563162208E0,2.340356588E0,5.340267948E0
3.957654697E0,3.655827045E0,-1.488849401E0,-7.802848816E-1,4.023753027E0
3.962396416E0,7.095343590E0,9.652041197E-1,-2.517615795E0,7.590382661E0
3.967138134E0,7.492043972E0,9.385957718E-1,-5.128647804E0,9.127689368E0
3.971879801E0,3.299279690E0,-1.735656500E0,-1.158574677E1,1.217075503E1
3.976621520E0,-1.734881401E0,-5.515074730E0,-1.915195274E1,2.000557814E1
3.981363239E0,-2.080392838E-1,-7.628666401E0,-1.912193298E1,2.058854420E1
3.986104905E0,2.771351337E0,-8.139254570E0,-1.696855164E1,1.902260754E1
3.990846624E0,6.201115608E0,-7.416776657E0,-1.399751663E1,1.701155145E1
3.995588343E0,8.278431892E0,-6.316814423E0,-1.055545330E1,1.482741290E1
4.000330009E0,9.066749573E0,-5.357541561E0,-7.282166004E0,1.280387211E1
4.005071728E0,9.091655731E0,-4.634855747E0,-4.144852638E0,1.101453109E1
4.009813447E0,7.147657394E0,-3.856694698E0,-2.181663990E0,8.409682395E0
4.014555114E0,5.898025513E0,-3.160286188E0,-4.501695633E-1,6.706471977E0
4.019296832E0,6.082753658E0,-2.477310658E0,1.701301336E0,6.784643425E0
4.024038551E0,7.041926861E0,-1.879089713E0,3.771152258E0,8.206174591E0
4.028780218E0,8.074829102E0,-1.350522995E0,5.968005657E0,1.013133105E1
4.033521936E0,8.928766251E0,-8.672152758E-1,8.390377045E0,1.228305158E1
4.038263655E0,9.220438004E0,-4.286241531E-1,1.023666477E1,1.378366792E1
4.043005322E0,9.013784409E0,-3.115415573E-3,1.143613911E1,1.456137345E1
4.047747041E0,8.503468513E0,4.197754562E-1,1.178775692E1,1.454085284E1
4.052488759E0,8.041575432E0,8.422332406E-1,1.138963699E1,1.396782457E1
4.057230426E0,7.991607666E0,1.249697924E0,1.066243172E1,1.338338478E1
4.061972145E0,8.446325302E0,1.625953674E0,9.724792480E0,1.298290126E1
4.066713864E0,9.338343620E0,1.935973883E0,8.582011223E0,1.282979240E1
4.071455530E0,1.015044689E1,2.103874445E0,7.225488663E0,1.263588328E1
4.076197249E0,1.065418053E1,2.254364729E0,5.871922493E0,1.237227533E1
4.080938968E0,1.081592846E1,2.312563896E0,4.690178394E0,1.201374353E1
4.085680634E0,1.069126987E1,2.331468821E0,3.722901344E0,1.155850305E1
4.090422353E0,1.018617439E1,2.120823860E0,3.223155975E0,1.089241833E1
4.095164072E0,9.995805740E0,1.966563940E0,3.559929371E0,1.079150607E1
4.099905739E0,1.121070862E1,2.075336695E0,5.762737274E0,1.277482489E1
4.104647457E0,1.327795982E1,2.269251347E0,1.132452679E1,1.759825633E1
4.109389124E0,1.334363556E1,2.201952934E0,1.602291489E1,2.096747501E1
4.114130843E0,1.141570950E1,2.075511456E0,1.476967239E1,1.878215626E1
4.118872561E0,1.011363888E1,2.375561237E0,1.115338326E1,1.524227478E1
4.123614228E0,8.939456940E0,2.428043365E0,8.808863640E0,1.278301074E1
4.128355947E0,8.774566650E0,2.309740543E0,7.469581127E0,1.175255562E1
4.133097666E0,9.234453201E0,2.222725630E0,6.476579189E0,1.149616080E1
4.137839332E0,9.763079643E0,2.058315516E0,5.682774544E0,1.148252208E1
4.142581051E0,1.009732246E1,1.845993400E0,5.137930870E0,1.147876066E1
4.147322770E0,1.023550987E1,1.619454384E0,4.767969131E0,1.140709536E1
4.152064436E0,1.026206303E1,1.352409244E0,4.539499760E0,1.130247789E1
4.156806155E0,1.029935265E1,1.099350572E0,4.415293217E0,1.125966477E1
4.161547822E0,9.517905235E0,1.057174563E0,4.315543175E0,1.050390646E1
4.166289541E0,9.741243362E0,9.699324965E-1,4.586855412E0,1.081072772E1
4.171031259E0,1.003555202E1,8.169425726E-1,4.766435623E0,1.113995548E1
4.175772926E0,1.020171165E1,5.989416838E-1,5.008805275E0,1.138076369E1
4.180514645E0,1.049250412E1,2.502685785E-1,5.529075623E0,1.186279707E1
4.185256364E0,1.096891975E1,-2.393645048E-1,6.268068790E0,1.263578974E1
4.189998030E0,1.133566189E1,-7.685534954E-1,7.269942760E0,1.348851262E1
4.194739749E0,1.176903915E1,-1.430209279E0,8.375383377E0,1.451560636E1
4.199481416E0,1.202936363E1,-2.347230434E0,8.741359711E0,1.505411737E1
4.204223134E0,1.138746166E1,-3.106662750E0,8.240876198E0,1.439575205E1
4.208964853E0,1.009345913E1,-3.603790045E0,7.098140717E0,1.285491429E1
4.213706520E0,8.574500084E0,-3.667218447E0,5.910874367E0,1.104123990E1
4.218448239E0,7.262293816E0,-3.367889643E0,4.811192513E0,9.339762604E0
4.223189905E0,7.171117783E0,-2.730385780E0,3.967958927E0,8.638555134E0
4.227931624E0,6.443926811E0,-2.116387367E0,2.499062538E0,7.228319432E0
4.232673343E0,5.111654282E0,-1.761561871E0,2.751895189E-1,5.413671489E0
4.237415009E0,3.292789936E0,-1.756313086E0,-2.709260464E0,4.611636746E0
4.242156728E0,1.839455128E0,-2.173679352E0,-6.357010841E0,6.965634496E0
4.246898395E0,1.342761040E0,-2.552890301E0,-1.060529232E1,1.099056328E1
4.251640114E0,1.240962029E0,-2.647732496E0,-1.389061165E1,1.419505428E1
4.256381832E0,1.246958256E0,-3.569488049E0,-1.574633884E1,1.619392901E1
4.261123499E0,3.247735977E0,-2.787542343E0,-1.558466530E1,1.616168227E1
4.265865218E0,5.061782837E0,-1.332040191E0,-1.217869186E1,1.325581050E1
4.270606884E0,5.815047741E0,4.782955945E-1,-9.142876625E0,1.084600110E1
4.275348603E0,5.151714802E0,2.903618574E0,-8.895175934E0,1.068154114E1
4.280090322E0,7.521275997E0,4.068747997E0,-7.134723186E0,1.113681183E1
4.284831989E0,8.123328209E0,5.538300991E0,-4.677427769E0,1.088758787E1
4.289573707E0,7.115757465E0,6.814673901E0,-4.734105110E0,1.093094396E1
4.294315374E0,5.652549744E0,6.788051605E0,-7.798058033E0,1.178298232E1
4.299057093E0,2.882930279E0,4.909524441E0,-1.380089569E1,1.492914730E1
4.303798759E0,-2.745229721E0,1.733930111E0,-1.939359665E1,1.966352946E1
4.308540478E0,-8.896732330E0,-2.174288511E0,-2.181016922E1,2.365508102E1
4.313282197E0,-1.343918705E1,-5.733179569E0,-2.068027687E1,2.532103766E1
4.318023864E0,-1.802348518E1,-8.994754791E0,-1.767758179E1,2.680015914E1
4.322765582E0,-2.240219307E1,-1.245606899E1,-1.572563171E1,3.007170434E1
4.327507249E0,-2.706616974E1,-1.589806843E1,-1.738649368E1,3.588337061E1
4.332248968E0,-3.166203499E1,-1.614738846E1,-2.074641991E1,4.115381577E1
4.336990634E0,-3.558271027E1,-1.165623188E1,-2.373045921E1,4.432980607E1
4.341732353E0,-3.979797745E1,-8.370796204E0,-3.058777428E1,5.088773107E1
4.346474072E0,-4.359774780E1,-7.533439159E0,-3.573118591E1,5.687032588E1
4.351215739E0,-4.061327744E1,-8.620440483E0,-3.528759003E1,5.448820338E1
4.355957457E0,-2.992180443E1,-1.146807384E1,-2.354149628E1,3.976220750E1
4.360699124E0,-2.660985565E1,-1.373314095E1,-1.298695183E1,3.263961544E1
4.365440843E0,-2.778547478E1,-1.451627731E1,-8.317084312E0,3.243345198E1
4.370182509E0,-2.975037003E1,-1.322148609E1,-1.371933174E1,3.532863250E1
4.374924228E0,-2.730577850E1,-1.230430794E1,-2.378320694E1,3.824450896E1
4.379665895E0,-2.139384270E1,-1.288558388E1,-3.238308334E1,4.089497358E1
4.384407614E0,-1.561770630E1,-1.401077080E1,-3.526288605E1,4.103273791E1
4.389149332E0,-1.414103794E1,-1.476494503E1,-3.508181000E1,4.060426023E1
4.393890999E0,-1.474228668E1,-1.550466919E1,-3.340409088E1,3.966816193E1
4.398632718E0,-1.722018814E1,-1.551282883E1,-3.207738113E1,3.957450086E1
4.403374384E0,-1.952653503E1,-1.433560467E1,-3.093510056E1,3.929090961E1
4.408116103E0,-1.979288292E1,-1.272930431E1,-2.939964104E1,3.765809735E1
4.412857770E0,-1.938441467E1,-1.166550255E1,-2.938468170E1,3.708502394E1
4.417599489E0,-1.681781769E1,-1.013241196E1,-2.606717873E1,3.263437713E1
4.422341155E0,-1.553757858E1,-8.227223396E0,-2.221660995E1,2.833163093E1
4.427082874E0,-1.495205784E1,-6.582650661E0,-1.804070282E1,2.433849382E1
4.431824541E0,-1.432112217E1,-5.069071293E0,-1.389623070E1,2.058871661E1
4.436566259E0,-1.350536537E1,-3.194892406E0,-1.009238434E1,1.715979175E1
4.441307926E0,-1.128016853E1,-1.097070932E0,-6.237584114E0,1.293650735E1
4.446049645E0,-9.049332619E0,1.243525028E0,-3.677569866E0,9.846892680E0
4.450791311E0,-6.554946899E0,2.832169533E0,-1.903950691E0,7.390097520E0
4.455533030E0,-4.096140385E0,3.855031490E0,-1.086186886E0,5.728824992E0
4.460274697E0,-2.032242298E0,4.429477692E0,-1.165600777E0,5.010878820E0
4.465016416E0,-1.861991882E-1,4.713380337E0,-9.576344490E-1,4.813282464E0
4.469758082E0,1.315365314E0,5.002439499E0,-7.758674622E-1,5.230349622E0
4.474499801E0,2.811182976E0,5.349987030E0,-4.466347694E-1,6.060081977E0
4.479241468E0,4.019165993E0,5.752210617E0,1.115317345E-1,7.018123794E0
4.483983186E0,4.635892391E0,6.241683960E0,3.970999718E-1,7.785101496E0
4.488724853E0,4.431638241E0,6.632439613E0,-1.324806213E-1,7.977858349E0
4.493466572E0,2.685019016E0,6.590739250E0,-1.423858166E0,7.257722994E0
4.498208239E0,2.401824474E0,6.474830151E0,-1.747474194E0,7.123612310E0
4.502949957E0,3.234968185E0,6.329129219E0,-1.171442509E0,7.203830466E0
4.507691624E0,3.955882311E0,5.952541828E0,-4.440517426E-1,7.160931575E0
4.512433343E0,5.271141052E0,5.280947208E0,5.027327538E-1,7.478373595E0
4.517175009E0,6.032645226E0,4.086142540E0,1.065395832E0,7.363724435E0
4.521916676E0,7.015053749E0,2.620541573E0,1.485480785E0,7.634452855E0
4.526658395E0,8.321584702E0,1.230535388E0,1.759940624E0,8.594206205E0
4.531400061E0,9.511682510E0,1.809942722E-2,1.944928169E0,9.708510563E0
4.536141780E0,1.059166336E1,-1.123392344E0,2.554595947E0,1.095314126E1
4.540883447E0,1.210493088E1,-2.201517344E0,3.953860998E0,1.292319802E1
4.545625166E0,1.318968296E1,-3.880372047E0,5.928404331E0,1.497234122E1
4.550366832E0,9.025589943E0,-8.660669327E0,9.391683578E0,1.564200075E1
4.555108551E0,1.668438911E1,-8.625486374E0,2.407718468E1,3.053651384E1
4.559850218E0,2.254374313E1,-6.654858589E0,4.167134094E1,4.784358006E1
4.564591936E0,2.693297577E1,-4.406062126E0,5.814099503E1,6.422751645E1
4.569333603E0,3.547290421E1,-4.216351986E0,6.040221405E1,7.017500993E1
4.574075322E0,2.885057068E1,-5.702864647E0,3.777286530E1,4.787136353E1
4.578816989E0,2.119883347E1,-6.305248260E0,1.881620598E1,2.903784261E1
4.583558655E0,1.560219765E1,-5.754742146E0,1.138329315E1,2.015254305E1
4.588300374E0,1.301517677E1,-4.408941269E0,8.418420792E0,1.611531564E1
4.593042041E0,1.188061142E1,-3.222120285E0,7.112362862E0,1.421677503E1
4.597783759E0,1.120381355E1,-2.484978199E0,6.936028004E0,1.340928929E1
4.602525426E0,1.030733776E1,-2.104758263E0,7.031742096E0,1.265371945E1
4.607267093E0,9.566671371E0,-1.893701077E0,7.453955650E0,1.227472035E1
4.612008811E0,8.842380524E0,-1.690445423E0,7.732007027E0,1.186714927E1
4.616750478E0,8.075204849E0,-1.532271743E0,8.008338928E0,1.147563865E1
4.621492197E0,7.315971375E0,-1.484663010E0,8.327262878E0,1.118351324E1
4.626233864E0,6.912251949E0,-1.476310372E0,8.235133171E0,1.085247150E1
4.630975582E0,6.369069099E0,-1.625540733E0,8.341464996E0,1.062014417E1
4.635717249E0,5.867918491E0,-1.547773480E0,8.599020004E0,1.052479051E1
4.640458916E0,3.762385368E0,-2.858508587E0,7.362744331E0,8.748520966E0
4.645200634E0,8.083391190E-1,-4.709631443E0,6.036463737E0,7.698891798E0
4.649942301E0,-5.041856766E-1,-5.461911201E0,5.803324699E0,7.985314943E0
4.654683968E0,1.599159241E-1,-5.245591164E0,6.029522896E0,7.993556537E0
4.659425686E0,1.398329258E0,-4.216122150E0,6.409378052E0,7.798149634E0
4.664167353E0,2.746828079E0,-2.628720284E0,6.675351620E0,7.682158165E0
4.668909072E0,4.800559521E0,-9.619405270E-1,6.910109520E0,8.468784734E0
4.673650739E0,6.154359818E0,1.474073529E-1,6.927054405E0,9.267251827E0
4.678392405E0,6.294760704E0,7.802500725E-1,6.534414768E0,9.106666726E0
4.683134124E0,6.010259628E0,1.159672499E0,6.123319626E0,8.658123604E0
4.687875791E0,5.683514118E0,1.419763565E0,5.527449608E0,8.054238665E0
4.692617509E0,5.807343483E0,1.585395813E0,4.108247757E0,7.288101114E0
4.697359176E0,6.054087639E0,1.703073502E0,3.057882547E0,6.993073871E0
4.702100843E0,5.663087845E0,1.978404760E0,1.974039555E0,6.315178659E0
4.706842561E0,5.272660732E0,2.301737785E0,1.118751049E0,5.860934391E0
4.711584228E0,5.171933174E0,2.653395891E0,6.626467705E-1,5.850513076E0
4.716325895E0,5.458951950E0,2.934190035E0,6.465687752E-1,6.231185981E0
4.721067614E0,6.044310570E0,3.158434629E0,9.039130211E-1,6.879422819E0
4.725809280E0,6.735166073E0,3.204780340E0,1.352532864E0,7.580397365E0
4.730550999E0,7.550889969E0,3.091024399E0,2.047451973E0,8.412040819E0
4.735292666E0,8.221199989E0,2.851149559E0,2.845412731E0,9.154974423E0
4.740034332E0,8.584093094E0,2.477612495E0,3.543108702E0,9.611391012E0
4.744776051E0,8.741389275E0,2.050204754E0,4.082627296E0,9.863218117E0
4.749517718E0,8.917015076E0,1.645765901E0,4.448798180E0,1.010017369E1
4.754259384E0,9.026297569E0,1.276572585E0,4.817591190E0,1.031081327E1
4.759001103E0,9.099456787E0,9.403773546E-1,5.159094334E0,1.050241295E1
4.763742770E0,8.968365669E0,6.253584623E-1,5.474341393E0,1.052573369E1
4.768484436E0,8.882304192E0,4.255295992E-1,6.066749573E0,1.076484341E1
4.773226155E0,8.757053375E0,2.226945162E-1,6.859788418E0,1.112619763E1
4.777967822E0,8.786178589E0,3.325706720E-2,7.834042549E0,1.177158710E1
4.782709489E0,8.966398239E0,-1.100428998E-1,8.602397919E0,1.242616823E1
4.787451155E0,9.029891014E0,-2.451778948E-1,8.755876541E0,1.258031867E1
4.792192874E0,9.040038109E0,-3.707164526E-1,8.356257439E0,1.231611782E1
4.796934541E0,8.990139961E0,-4.643475115E-1,7.676412582E0,1.183070350E1
4.801676207E0,9.010285378E0,-5.780526996E-1,6.892683983E0,1.135907038E1
4.806417926E0,9.237447739E0,-7.638465762E-1,5.568658829E0,1.081313384E1
4.811159593E0,9.760827065E0,-1.062737823E0,5.320478439E0,1.116739215E1
4.815901259E0,1.042579174E1,-1.395196080E0,6.555465221E0,1.239426600E1
4.820642978E0,1.017471027E1,-1.405940294E0,5.649091721E0,1.172235619E1
4.825384645E0,9.626787186E0,-1.336213112E0,4.184198856E0,1.058149408E1
4.830126311E0,9.212364197E0,-1.261732459E0,3.289168119E0,9.862973680E0
4.834867978E0,8.874782562E0,-1.155267835E0,2.812939882E0,9.381313345E0
4.839609697E0,8.465887070E0,-9.968381524E-1,2.538461924E0,8.894308243E0
4.844351364E0,8.047776222E0,-7.929303646E-1,2.354457617E0,8.422524049E0
4.849093030E0,7.756192684E0,-5.951719284E-1,2.154990911E0,8.071972523E0
4.853834749E0,7.594319344E0,-4.400921762E-1,2.155975342E0,7.906680535E0
4.858576416E0,7.565985203E0,-2.866807878E-1,2.597708464E0,8.004649101E0
4.863318082E0,7.662817001E0,-2.972454727E-1,3.362390518E0,8.373338000E0
4.868059749E0,7.752400875E0,-4.988136292E-1,4.018043995E0,8.746039784E0
4.872801468E0,7.634160042E0,-1.063828230E0,4.409052372E0,8.879857705E0
4.877543134E0,7.452595711E0,-1.484305263E0,4.885565281E0,9.033996516E0
4.882284801E0,7.793932915E0,-1.447858930E0,5.751683235E0,9.794056657E0
4.887026520E0,8.407938004E0,-8.103761673E-1,7.504675865E0,1.129912788E1
4.891768186E0,8.791708946E0,-5.538545549E-2,9.473986626E0,1.292492307E1
4.896509853E0,8.797951698E0,5.969269276E-1,1.136401558E1,1.438405805E1
4.901251520E0,8.546925545E0,9.821960926E-1,1.287567520E1,1.548540143E1
4.905993239E0,8.865173340E0,1.563612938E0,1.399417114E1,1.663950149E1
4.910734905E0,9.452202797E0,2.053133488E0,1.427972221E1,1.724731751E1
4.915476572E0,1.020830345E1,2.418089151E0,1.299485016E1,1.670098036E1
4.920218239E0,9.758060455E0,2.378854275E0,9.855674744E0,1.407170978E1
4.924959957E0,-6.068524837E0,3.582419753E-1,-1.360064507E0,6.229374485E0
4.929701624E0,-3.253276825E1,-3.899962902E0,-1.807758331E1,3.742178161E1
4.934443291E0,-3.345193100E1,-5.774147511E0,-2.214564705E1,4.053149578E1
4.939184957E0,-2.075405884E1,-3.794147968E0,-2.815013123E1,3.517891990E1
4.943926676E0,-8.166683197E0,-5.271875262E-1,-3.741806793E1,3.830253841E1
4.948668343E0,-4.681809425E0,1.953284860E0,-4.850904083E1,4.877357588E1
4.953410009E0,-8.747538567E0,2.449784994E0,-5.966900253E1,6.035653022E1
4.958151676E0,-1.500325489E1,1.409121990E0,-6.727349091E1,6.894059661E1
4.962893395E0,-1.671286774E1,3.857355714E-1,-6.796089935E1,6.998680290E1
4.967635061E0,-1.646583557E1,-1.386893034E0,-6.324632645E1,6.536929725E1
4.972376728E0,-1.447755718E1,-1.807591200E0,-4.988564301E1,5.197542136E1
4.977118395E0,-1.302264881E1,-1.351531029E0,-3.920248413E1,4.133099055E1
4.981860061E0,-1.350870228E1,-1.427427769E0,-3.343408585E1,3.608823470E1
4.986601780E0,-1.536471939E1,-1.946332693E0,-3.110716629E1,3.474936845E1
4.991343447E0,-1.717115974E1,-2.520739079E0,-2.954425049E1,3.426464051E1
4.996085114E0,-1.796178436E1,-3.427819252E0,-2.720430946E1,3.277880559E1
5.000826780E0,-1.813356781E1,-4.840501308E0,-2.424529266E1,3.066090264E1
5.005568447E0,-1.861727333E1,-6.745851040E0,-2.174658966E1,2.941128243E1
5.010310166E0,-1.912264824E1,-8.747735977E0,-1.995464325E1,2.898941786E1
5.015051832E0,-1.885516357E1,-1.073277092E1,-1.951263046E1,2.917965580E1
5.019793499E0,-1.703640366E1,-1.215408230E1,-2.045737076E1,2.926541960E1
5.024535166E0,-1.474501610E1,-1.322200489E1,-2.344881248E1,3.069338235E1
5.029276832E0,-1.210173988E1,-1.384402943E1,-2.696120644E1,3.263458153E1
5.034018499E0,-9.441942215E0,-1.395510197E1,-2.829924393E1,3.293542698E1
5.038760218E0,-6.830389023E0,-1.317673016E1,-2.578686142E1,2.975302764E1
5.043501884E0,-4.747670650E0,-1.184238720E1,-2.046955872E1,2.412022689E1
5.048243551E0,-4.009995937E0,-1.049441338E1,-1.596961975E1,1.952540741E1
5.052985218E0,-3.276701927E0,-8.733810425E0,-1.157529449E1,1.486619194E1
5.057726884E0,-2.433007240E0,-6.742355347E0,-8.472928047E0,1.109817055E1
5.062468603E0,-1.825010300E0,-4.446254730E0,-9.622289658E0,1.075584966E1
5.067210270E0,-1.571594715E0,-2.088271141E0,-1.206586361E1,1.234568147E1
5.071951936E0,-5.956649780E-3,5.219476223E-1,-9.892748833E0,9.906510196E0
5.076693603E0,1.424313784E0,2.931182384E0,-8.468571663E0,9.073985119E0
5.081435270E0,2.797201633E0,4.925711155E0,-6.994118690E0,9.000259086E0
5.086176936E0,3.738870382E0,6.282991886E0,-6.068745613E0,9.501832039E0
5.090918603E0,4.160015106E0,7.116725445E0,-5.068800926E0,9.677099233E0
5.095660322E0,4.131011486E0,7.594992638E0,-3.461935043E0,9.313117808E0
5.100401989E0,3.529148579E0,7.627445221E0,-1.591856003E0,8.553760332E0
5.105143655E0,2.788915396E0,7.485239983E0,6.165513992E-1,8.011679119E0
5.109885322E0,1.909085512E0,7.148417950E0,3.068309784E0,8.009932060E0
5.114626989E0,4.764183044E0,7.129710674E0,5.409688950E0,1.013878439E1
5.119368655E0,5.131135464E0,8.945197105E0,2.279156685E0,1.056123372E1
5.124110322E0,2.312846184E-1,1.493452644E1,-8.598399162E0,1.723444344E1
5.128852041E0,-3.389752388E0,1.889320183E1,-5.927576065E0,2.008929204E1
5.133593707E0,-3.808526516E0,2.039693832E1,-2.564955711E0,2.090739020E1
5.138335374E0,-2.572956085E-1,1.990266228E1,1.328897476E-1,1.990476894E1
5.143077041E0,4.284356117E0,1.816582870E1,2.129868984E0,1.878535019E1
5.147818707E0,5.020709038E0,1.501072693E1,-7.541942596E-2,1.582830156E1
5.152560374E0,6.141219616E0,1.026516628E1,-1.646822929E0,1.207477714E1
5.157302041E0,5.417567253E0,3.772718668E0,4.013712883E0,7.726146012E0
5.162043707E0,4.051328659E0,-6.769313812E0,2.511882401E1,2.632854331E1
5.166785374E0,1.166094685E1,-1.057755852E1,3.738522720E1,4.056498045E1
5.171527041E0,3.010434723E1,-6.791450024E0,5.597616577E1,6.391968906E1
5.176268759E0,3.004609680E1,-3.949281216E0,6.793303680E1,7.438590085E1
5.181010426E0,2.520019913E1,-5.305324554E0,5.261328888E1,5.857776602E1
5.185752093E0,2.489220619E1,-5.261690617E0,4.064249039E1,4.794913286E1
5.190493759E0,2.702378845E1,-4.776398659E0,3.216047668E1,4.227759912E1
5.195235426E0,2.812530899E1,-4.243801117E0,2.655920410E1,3.891573173E1
5.199977093E0,2.725655556E1,-3.752265453E0,2.224156570E1,3.537918261E1
5.204718759E0,2.309800339E1,-3.433624744E0,1.841986465E1,2.974220828E1
5.209460426E0,1.527664185E1,-3.346869946E0,1.550406742E1,2.202165823E1
5.214202093E0,9.241995811E0,-2.988245249E0,1.366742134E1,1.676730456E1
5.218943759E0,5.614616871E0,-2.438288689E0,1.160989380E1,1.312474032E1
5.223685426E0,3.823053122E0,-1.867933035E0,9.435188293E0,1.035025058E1
5.228427093E0,3.117257118E0,-1.534932613E0,7.302309036E0,8.086842853E0
5.233168759E0,3.474320889E0,-1.470268846E0,5.988579273E0,7.077830022E0
5.237910426E0,4.196850777E0,-1.517180920E0,6.173573017E0,7.617637310E0
5.242652093E0,5.071918488E0,-1.567623854E0,6.581985950E0,8.456023932E0
5.247393811E0,5.852337837E0,-1.536523342E0,6.552750111E0,8.919041213E0
5.252135478E0,5.669767380E0,-1.270862460E0,6.661318779E0,8.839373361E0
5.256877145E0,5.333397865E0,-1.186865330E0,6.984836578E0,8.868016922E0
5.261618811E0,5.543015480E0,-1.187763572E0,6.996100903E0,9.004511689E0
5.266360478E0,5.771919250E0,-1.182073832E0,6.822378159E0,9.014277238E0
5.271102145E0,6.298883915E0,-8.297834396E-1,6.510669708E0,9.096884037E0
5.275843811E0,7.117705822E0,-2.601917982E-1,5.957318306E0,9.285422841E0
5.280585478E0,7.356512547E0,-2.424098253E-1,5.143963337E0,8.979832859E0
5.285327145E0,7.637087345E0,-5.381464958E-1,4.340857029E0,8.801008153E0
5.290068811E0,7.788902283E0,-7.035033703E-1,3.612440825E0,8.614618069E0
5.294810478E0,7.789578438E0,-8.545305729E-1,2.944604635E0,8.371287308E0
5.299552145E0,7.771914005E0,-9.609407187E-1,2.548450708E0,8.235329707E0
5.304293811E0,7.714696884E0,-1.040185928E0,2.442194939E0,8.158605941E0
5.309035478E0,7.582424641E0,-1.126302838E0,2.357081652E0,8.019822656E0
5.313777145E0,7.480790138E0,-1.172030091E0,2.356935501E0,7.930385904E0
5.318518811E0,7.219500065E0,-1.254260302E0,2.636919022E0,7.787662808E0
5.323260478E0,6.666221619E0,-1.279648662E0,3.872985363E0,7.815115290E0
5.328002145E0,6.062809944E0,-1.351612091E0,4.543136597E0,7.695752712E0
5.332743811E0,5.263900280E0,-1.468511105E0,4.921564102E0,7.354384015E0
5.337485478E0,4.528573036E0,-1.487539053E0,5.324806213E0,7.146629093E0
5.342227145E0,4.171618462E0,-1.451986074E0,5.671418667E0,7.188578013E0
5.346968811E0,4.594151020E0,-1.304210424E0,5.791493416E0,7.506569417E0
5.351710478E0,5.408958435E0,-1.065044761E0,5.823022842E0,8.018649931E0
5.356452145E0,6.353244781E0,-8.871315718E-1,5.682043076E0,8.569500288E0
5.361193811E0,7.084138393E0,-8.294402957E-1,5.174412727E0,8.811783875E0
5.365935478E0,7.477503777E0,-8.061441183E-1,4.576306343E0,8.803721418E0
5.370677145E0,7.556468487E0,-7.589417696E-1,4.056118965E0,8.609779885E0
5.375418811E0,7.669172287E0,-6.320810318E-1,4.281453609E0,8.806053316E0
5.380160478E0,8.247021675E0,-5.709376335E-1,5.476459503E0,9.916196094E0
5.384902145E0,9.029155731E0,-5.943862200E-1,7.027545929E0,1.145710915E1
5.389643811E0,9.586976051E0,-5.117276311E-1,7.672279835E0,1.228966447E1
5.394385478E0,9.796169281E0,-4.174930453E-1,7.816192627E0,1.253922247E1
5.399127145E0,9.120670319E0,-4.043661952E-1,7.562721252E0,1.185516309E1
5.403868811E0,8.124630928E0,-4.917182922E-1,7.027805328E0,1.075367204E1
5.408610426E0,7.765789509E0,-5.821700692E-1,6.553742409E0,1.017830773E1
5.413352093E0,8.141899109E0,-7.533934116E-1,6.118359566E0,1.021236733E1
5.418093759E0,8.808639526E0,-9.267376065E-1,5.650369644E0,1.050607681E1
5.422835426E0,9.312541008E0,-1.117090821E0,5.186326981E0,1.071770962E1
5.427577093E0,9.556279182E0,-1.285045862E0,4.682485580E0,1.071911778E1
5.432318759E0,9.506597519E0,-1.449342251E0,4.148704529E0,1.047319142E1
5.437060426E0,9.294989586E0,-1.583747387E0,3.698059559E0,1.012821463E1
5.441802093E0,8.842640877E0,-1.791897535E0,3.402198792E0,9.642517880E0
5.446543759E0,8.490631104E0,-1.743984938E0,3.461488008E0,9.333498767E0
5.451285426E0,8.519374847E0,-1.647734642E0,3.654034138E0,9.415239918E0
5.456027093E0,8.646627426E0,-1.533147335E0,3.969702244E0,9.637076450E0
5.460768759E0,8.903537750E0,-1.420024037E0,4.487515450E0,1.007110955E1
5.465510426E0,9.122776031E0,-1.301504254E0,5.078412056E0,1.052184513E1
5.470252041E0,9.376157761E0,-1.223112345E0,5.711662769E0,1.104678368E1
5.474993707E0,9.612916946E0,-1.129134297E0,6.569994926E0,1.169820285E1
5.479735374E0,9.948660851E0,-1.030078411E0,7.774781704E0,1.266823369E1
5.484477041E0,1.044988441E1,-9.309605360E-1,8.907140732E0,1.376240996E1
5.489218707E0,1.110242844E1,-8.265118003E-1,1.039039993E1,1.522850780E1
5.493960374E0,1.168858910E1,-8.837518692E-1,1.137064552E1,1.633082092E1
5.498702041E0,1.250809097E1,-1.135054588E0,1.208677864E1,1.743074601E1
5.503443707E0,1.364043045E1,-1.462291360E0,1.242105293E1,1.850627447E1
5.508185374E0,1.383281326E1,-2.130940437E0,8.784794807E0,1.652453478E1
5.512927041E0,2.510992527E0,-5.526988983E0,-1.001723003E1,1.171313742E1
5.517668707E0,-1.370170689E1,-9.180641174E0,-4.695745850E1,4.976970818E1
5.522410322E0,-3.375174713E1,-1.326115227E1,-6.942989349E1,7.832974342E1
5.527151989E0,-4.657097244E1,-1.822062111E1,-7.085324860E1,8.672386837E1
5.531893655E0,-4.530738831E1,-1.501684380E1,-6.534873962E1,8.092417935E1
5.536635322E0,-4.038980865E1,-6.339610577E0,-1.803754807E1,4.468646826E1
5.541376989E0,-4.176651001E1,1.732993484E0,2.977673054E0,4.190836625E1
5.546118655E0,-4.327963638E1,4.540507793E0,-7.936288834E0,4.423491626E1
5.550860322E0,-4.222048950E1,3.325242758E0,-2.693078995E1,5.018858855E1
5.555601989E0,-3.433044434E1,3.054587364E0,-3.513726044E1,4.921927451E1
5.560343603E0,-2.500222397E1,4.086824417E0,-3.538788605E1,4.352144088E1
5.565085270E0,-1.910663986E1,5.903829575E0,-3.356762695E1,3.907306578E1
5.569826936E0,-1.096833324E1,8.585962296E0,-2.969693375E1,3.280138650E1
5.574568603E0,-8.451395035E0,1.017774773E1,-2.892999649E1,3.181127668E1
5.579310270E0,-9.923264503E0,1.065329933E1,-2.947041702E1,3.287049505E1
5.584051936E0,-1.167278481E1,1.104772282E1,-2.918891525E1,3.332114731E1
5.588793603E0,-1.328468895E1,1.162014389E1,-2.748022270E1,3.265996547E1
5.593535270E0,-1.508972645E1,1.214276981E1,-2.490721512E1,3.155179976E1
5.598276884E0,-1.671497726E1,1.239846230E1,-2.235188293E1,3.054044864E1
5.603018551E0,-1.762554932E1,1.247628021E1,-2.004517555E1,2.946398852E1
5.607760218E0,-1.775006104E1,1.219153023E1,-1.824511528E1,2.822378975E1
5.612501884E0,-1.682102776E1,1.130430222E1,-1.701861382E1,2.646445615E1
5.617243551E0,-1.476132393E1,9.852247238E0,-1.530103970E1,2.343256869E1
5.621985166E0,-1.206594563E1,8.247940063E0,-1.342996979E1,1.984892057E1
5.626726832E0,-9.434425354E0,6.670775890E0,-1.185511398E1,1.655449668E1
5.631468499E0,-7.157626629E0,5.265575409E0,-1.086841297E1,1.403852926E1
5.636210166E0,-5.126174927E0,3.980642319E0,-1.026423073E1,1.214403619E1
5.640951832E0,-2.936843395E0,2.855708122E0,-9.628880501E0,1.046400773E1
5.645693499E0,-9.372987747E-1,1.949374914E0,-9.559742928E0,9.801391554E0
5.650435114E0,7.710528374E-1,1.245930195E0,-9.525916100E0,9.637942834E0
5.655176780E0,1.642186642E0,6.155197620E-1,-9.891347885E0,1.004561618E1
5.659918447E0,2.933436632E0,6.101490855E-1,-6.706353188E0,7.345236923E0
5.664660114E0,4.016390800E0,6.651413441E-1,-3.619488716E0,5.447431196E0
5.669401780E0,4.490641594E0,5.692721605E-1,-1.900016785E0,4.909174727E0
5.674143395E0,4.703028679E0,6.186664104E-1,-8.088998795E-1,4.812020978E0
5.678885061E0,4.670224667E0,6.191380620E-1,4.626789093E-1,4.733751382E0
5.683626728E0,4.671097755E0,7.238818407E-1,1.843154907E0,5.073497726E0
5.688368395E0,4.784860611E0,8.378386497E-1,3.139640331E0,5.783961106E0
5.693110009E0,4.852824688E0,9.645936489E-1,4.525938034E0,6.705554671E0
5.697851676E0,4.914377689E0,1.007326722E0,5.874674797E0,7.725129071E0
5.702593343E0,4.869456768E0,9.792534709E-1,7.180966377E0,8.731370149E0
5.707335009E0,4.940896034E0,8.797526360E-1,8.456609726E0,9.833649698E0
5.712076676E0,5.425429344E0,8.312317729E-1,1.036564064E1,1.172914045E1
5.716818291E0,5.205844879E0,6.632764339E-1,1.089448357E1,1.209258156E1
5.721559957E0,4.703554153E0,2.055292845E0,-5.260544777E0,7.349896714E0
5.726301624E0,2.943127394E0,4.841007233E0,-1.083126736E1,1.222348978E1
5.731043291E0,3.706830502E0,5.337240219E0,-6.208584785E0,8.987393981E0
5.735784905E0,6.369730949E0,5.177934170E0,-9.100322723E-1,8.259093980E0
5.740526572E0,1.001890182E1,4.901097775E0,2.323845863E0,1.139295452E1
5.745268239E0,3.463533163E0,-9.527261853E-1,7.657917500E0,8.458572550E0
5.750009905E0,1.732487869E1,-2.217861652E0,3.114272308E1,3.570629543E1
5.754751572E0,2.516020012E1,6.010969356E-2,4.138719177E1,4.843489368E1
5.759493186E0,2.873488998E1,9.587264657E-1,4.342414474E1,5.207945282E1
5.764234853E0,2.779097939E1,-1.741509199E0,3.788898087E1,4.702070034E1
5.768976520E0,2.671025467E1,-2.216614246E0,3.549071121E1,4.447405610E1
5.773718134E0,2.561750793E1,-1.695945501E0,3.214737320E1,4.114105671E1
5.778459801E0,2.264620781E1,-1.824259281E0,2.735823441E1,3.556194089E1
5.783201468E0,1.928660011E1,-2.388129950E0,2.387041283E1,3.078104477E1
5.787943082E0,1.664179802E1,-2.670317173E0,2.476650620E1,2.995763449E1
5.792684749E0,1.429765701E1,-2.891814709E0,2.586383247E1,2.969382795E1
5.797426416E0,1.191275311E1,-3.110024214E0,2.602121162E1,2.878696565E1
5.802168082E0,9.446190834E0,-3.596073389E0,2.507438278E1,2.703492070E1
5.806909697E0,7.178954124E0,-4.201602936E0,2.208309746E1,2.359775504E1
5.811651364E0,6.490563869E0,-4.634230137E0,1.744230461E1,1.917909014E1
5.816393030E0,6.078133583E0,-4.503464699E0,1.312909508E1,1.515249285E1
5.821134645E0,5.347563744E0,-4.022019863E0,9.707477570E0,1.179017398E1
5.825876311E0,4.592441082E0,-3.416604042E0,7.058525562E0,9.087710459E0
5.830617978E0,3.867599010E0,-2.818205357E0,5.371010303E0,7.193632964E0
5.835359645E0,3.607423306E0,-2.300271273E0,4.215366840E0,6.006169198E0
5.840101259E0,3.786511898E0,-1.883128166E0,3.306263447E0,5.367981187E0
5.844842926E0,4.422882080E0,-1.478088379E0,2.747830391E0,5.412689074E0
5.849584593E0,6.310696602E0,-7.210841179E-1,2.759034872E0,6.925108471E0
5.854326207E0,7.249319077E0,-2.607315779E-1,2.750866652E0,7.758084516E0
5.859067874E0,7.785848141E0,5.045163631E-2,2.919608593E0,8.315412857E0
5.863809541E0,7.821506023E0,2.419883013E-1,2.997157097E0,8.379586235E0
5.868551155E0,7.742904186E0,4.601103663E-1,3.309295654E0,8.433012778E0
5.873292822E0,7.667761803E0,6.570979357E-1,3.842929840E0,8.602003169E0
5.878034489E0,7.635118961E0,7.970414162E-1,4.340776443E0,8.818880695E0
5.882776103E0,7.725329399E0,8.365273476E-1,4.260724545E0,8.861956103E0
5.887517770E0,7.600196838E0,7.435889244E-1,4.140044212E0,8.686534554E0
5.892259436E0,7.486940384E0,6.107286215E-1,4.000864983E0,8.510827596E0
5.897001051E0,7.353472710E0,4.515455663E-1,3.495923281E0,8.154687847E0
5.901742718E0,6.993156910E0,2.557871640E-1,2.637896061E0,7.478513640E0
5.906484384E0,6.648641109E0,1.783407032E-1,1.914112568E0,6.920986991E0
5.911225999E0,6.334563255E0,7.739445567E-2,1.365087032E0,6.480443206E0
5.915967666E0,6.145726204E0,5.037386715E-2,8.578019142E-1,6.205506605E0
5.920709332E0,6.092020988E0,1.799701154E-2,4.753360748E-1,6.110563640E0
5.925450947E0,6.117335320E0,4.487046599E-2,5.214023590E-1,6.139679567E0
5.930192614E0,6.134221077E0,1.886535734E-1,8.375754356E-1,6.194012512E0
5.934934280E0,5.902612686E0,3.781677783E-1,1.883600712E0,6.207398733E0
5.939675895E0,5.441239357E0,6.501124501E-1,3.531582355E0,6.519340908E0
5.944417561E0,4.942808628E0,8.999305964E-1,5.285603046E0,7.292381763E0
5.949159176E0,4.518655777E0,1.037065506E0,6.501787186E0,7.985423690E0
5.953900843E0,4.239093781E0,1.092166662E0,7.027426720E0,8.279339974E0
5.958642509E0,4.399083614E0,1.155679584E0,7.188354492E0,8.506466496E0
5.963384124E0,4.724539757E0,1.150806189E0,7.218983173E0,8.703984654E0
5.968125791E0,5.231189728E0,1.087037325E0,7.011639595E0,8.815332434E0
5.972867405E0,5.798988342E0,1.062451601E0,6.812470913E0,9.009263518E0
5.977609072E0,6.291271210E0,1.000362277E0,6.628574848E0,9.193411915E0
5.982350739E0,6.676355839E0,9.361039996E-1,6.494190693E0,9.360797548E0
5.987092353E0,6.937542915E0,8.593271971E-1,6.364457607E0,9.453796357E0
5.991834020E0,7.087323189E0,8.359745741E-1,6.254243851E0,9.489181715E0
5.996575686E0,7.150445938E0,8.076219559E-1,6.235744476E0,9.521850635E0
6.001317301E0,7.358355522E0,7.905013561E-1,6.236469269E0,9.678007921E0
6.006058968E0,7.647015572E0,7.969334126E-1,6.323415756E0,9.954774575E0
6.010800582E0,7.945614815E0,8.179343939E-1,6.440969467E0,1.026098919E1
6.015542249E0,8.214594841E0,8.781615496E-1,6.628934383E0,1.059214365E1
6.020283916E0,8.446053505E0,9.595656395E-1,6.780289650E0,1.087331200E1
6.025025530E0,8.665833473E0,1.017922163E0,6.830630302E0,1.108108053E1
6.029767197E0,8.861020088E0,1.097511530E0,6.830856800E0,1.124201108E1
6.034508811E0,8.984340668E0,1.093621969E0,6.749326706E0,1.129016374E1
6.039250478E0,9.018880844E0,1.075807810E0,6.536437511E0,1.119028996E1
6.043992093E0,9.045536995E0,1.029633403E0,6.260222435E0,1.104863202E1
6.048733759E0,9.006446838E0,9.931141138E-1,5.955171585E0,1.084280540E1
6.053475374E0,8.992372513E0,8.562104702E-1,5.727026939E0,1.069554568E1
6.058217041E0,8.991719246E0,6.336050630E-1,5.513112068E0,1.056630849E1
6.062958707E0,8.917062759E0,2.947612107E-1,5.299946308E0,1.037739482E1
6.067700322E0,8.767387390E0,-1.847037673E-2,5.087973118E0,1.013680883E1
6.072441989E0,8.414256096E0,-2.583442926E-1,4.871524334E0,9.726160432E0
6.077183603E0,7.441375256E0,-2.923865020E-1,4.804541111E0,8.862458510E0
6.081925270E0,6.814620972E0,-4.279897809E-1,4.809504986E0,8.351860418E0
6.086666884E0,6.149179459E0,-6.516782045E-1,4.865507603E0,7.868307107E0
6.091408551E0,5.109499931E0,-1.072574377E0,4.954154491E0,7.197294774E0
6.096150166E0,2.846182823E0,-2.078764200E0,5.054265976E0,6.161787226E0
6.100891832E0,-1.539317608E0,-4.137973309E0,4.958636761E0,6.639307217E0
6.105633447E0,-9.632833481E0,-7.254911900E0,4.539017677E0,1.288518176E1
6.110375114E0,-2.286603165E1,-1.101110935E1,2.828916550E0,2.553630164E1
6.115116780E0,-3.458479309E1,-1.371302509E1,1.138993263E0,3.722166407E1
6.119858395E0,-3.606845856E1,-1.322320652E1,-3.026871681E-1,3.841716430E1
6.124600061E0,-2.954223061E1,-8.741245270E0,-3.629207611E-3,3.080832308E1
6.129341676E0,-2.351610565E1,-1.543373168E-1,-4.727537632E0,2.398709355E1
6.134083343E0,-2.194925308E1,9.231227875E0,-1.759076500E1,2.960439650E1
6.138824957E0,-2.367863655E1,1.610042381E1,-3.966235352E1,4.891833769E1
6.143566624E0,-2.466334724E1,1.894337845E1,-5.977051163E1,6.737689771E1
6.148308239E0,-1.874697495E1,1.948191071E1,-6.906007385E1,7.416392462E1
6.153049905E0,-1.183330917E1,1.878176308E1,-6.957563782E1,7.303116600E1
6.157791520E0,-5.281518936E0,1.711716461E1,-6.948796844E1,7.175980438E1
6.162533186E0,1.321498632E0,1.426506615E1,-6.089489746E1,6.255738971E1
6.167274801E0,6.725811958E0,1.143713665E1,-4.112624359E1,4.321356909E1
6.172016468E0,8.525308609E0,1.006395626E1,-3.122306252E1,3.389459744E1
6.176758082E0,6.542680740E0,1.030113506E1,-2.974112701E1,3.214739011E1
6.181499749E0,3.214163065E0,1.162899590E1,-3.100735092E1,3.327191309E1
6.186241364E0,1.588569403E0,1.243455696E1,-3.080079460E1,3.325403295E1
6.190983030E0,1.307582855E0,1.334011650E1,-2.941843033E1,3.232820014E1
6.195724645E0,1.289642096E0,1.483528614E1,-2.728525543E1,3.108430562E1
6.200466311E0,8.364331722E-1,1.699670219E1,-2.490303040E1,3.016203622E1
6.205207926E0,-1.052045822E-2,1.987416840E1,-2.425871658E1,3.136029353E1
6.209949593E0,-1.898048401E0,2.310580254E1,-2.589279175E1,3.475510557E1
6.214691207E0,-5.057359219E0,2.567424965E1,-2.729642105E1,3.781320642E1
6.219432874E0,-7.897732258E0,2.674404526E1,-2.603834534E1,3.815250397E1
6.224174489E0,-9.679162025E0,2.614791870E1,-2.221294212E1,3.564848703E1
6.228916155E0,-1.019302940E1,2.454019547E1,-1.771688843E1,3.193755121E1
6.233657770E0,-9.580400467E0,2.219392967E1,-1.381365108E1,2.784190266E1
6.238399384E0,-8.259014130E0,1.871907043E1,-1.212174320E1,2.378132819E1
6.243141051E0,-6.703189373E0,1.444823647E1,-1.252960014E1,2.026512187E1
6.247882666E0,-5.599628925E0,1.029660797E1,-1.473978615E1,1.883181551E1
6.252624332E0,-4.918169498E0,6.793318748E0,-1.654807281E1,1.855198870E1
6.257365947E0,-4.487563133E0,4.241592884E0,-1.677758026E1,1.787782236E1
6.262107614E0,-4.236224651E0,2.480656624E0,-1.596370506E1,1.670147107E1
6.266849228E0,-3.221328259E0,1.093742132E0,-1.485837078E1,1.524284783E1
6.271590895E0,-1.192751884E0,-2.996641397E-1,-1.204055405E1,1.210319782E1
6.276332509E0,1.362853050E-1,-1.600448370E0,-8.136356354E0,8.293389137E0
6.281074124E0,8.562023640E-1,-3.022605896E0,-3.918366432E0,5.022233008E0
6.285815791E0,1.181102276E0,-4.677791595E0,-2.082691193E-1,4.829090269E0
6.290557405E0,1.255897522E0,-6.676023006E0,3.793687344E0,7.780657134E0
6.295299072E0,9.352123737E-1,-8.755768776E0,7.224149704E0,1.138975188E1
6.300040686E0,3.842697144E-1,-1.064298248E1,1.002612782E1,1.462682393E1
6.304782353E0,6.786441803E-2,-1.215247631E1,1.259129620E1,1.749937216E1
6.309523968E0,2.162094116E-1,-1.322361660E1,1.473143005E1,1.979711630E1
6.314265634E0,6.275277138E-1,-1.366147518E1,1.643056107E1,2.137739535E1
6.319007249E0,1.645529985E0,-1.348129654E1,1.787574387E1,2.244984062E1
6.323748864E0,3.437757015E0,-1.275556183E1,1.837579346E1,2.263166622E1
6.328490530E0,5.805294037E0,-1.169946861E1,1.877415466E1,2.287024023E1
6.333232145E0,8.217571259E0,-1.048504162E1,1.916315842E1,2.333862069E1
6.337973759E0,1.057321167E1,-9.082655907E0,1.926615906E1,2.377966207E1
6.342715426E0,1.230685139E1,-7.435544491E0,1.823843765E1,2.322469636E1
6.347457041E0,1.431702232E1,-5.400161743E0,1.679782867E1,2.272236615E1
6.352198707E0,1.658837509E1,-3.175564289E0,1.497676563E1,2.257347792E1
6.356940322E0,1.886229706E1,-1.001654506E0,1.298879623E1,2.292375165E1
6.361681989E0,1.971896362E1,1.218565464E0,7.850084305E0,2.125902754E1
6.366423603E0,1.645101547E1,1.245235729E1,-2.114470291E1,2.954311381E1
6.371165218E0,2.077255630E1,8.294718742E0,-6.334472656E0,2.324708580E1
6.375906884E0,2.651014709E1,3.393911362E0,2.868017960E1,3.920279626E1
6.380648499E0,3.786845779E1,2.230847120E0,6.975646210E1,7.940378315E1
6.385390166E0,3.077245712E1,-3.884263039E-1,5.011183167E1,5.880723310E1
6.390131780E0,2.778714752E1,-3.949698448E0,2.948441696E1,4.070695922E1
6.394873395E0,1.693724442E1,-3.365863085E0,2.486167145E1,3.027048050E1
6.399615061E0,1.279665661E1,-1.798250437E0,1.187868214E1,1.755252729E1
6.404356676E0,1.115414047E1,-1.799118757E0,6.047837257E0,1.281514781E1
6.409098291E0,1.017106533E1,-2.229333162E0,5.398957253E0,1.172899125E1
6.413839957E0,1.127698231E1,-2.923338890E0,3.540645838E0,1.217589476E1
6.418581572E0,1.258545685E1,-3.357102871E0,-2.561379671E-1,1.302802634E1
6.423323186E0,1.381995583E1,-4.929182053E0,-5.889207363E0,1.581046420E1
6.428064853E0,1.373740768E1,-5.820476532E0,-9.569941521E0,1.772506975E1
6.432806468E0,1.143669319E1,-5.110164165E0,-7.769887924E0,1.474051856E1
6.437548082E0,9.059741974E0,-3.516501904E0,-3.515242100E0,1.033448776E1
6.442289749E0,7.894084930E0,-1.408726692E0,-5.480608940E-1,8.037503252E0
6.447031364E0,7.281419277E0,5.934600830E-1,4.903791547E-1,7.322003365E0
6.451772978E0,6.641092300E0,1.702436686E0,7.471984029E-1,6.896426833E0
6.456514645E0,5.998402119E0,2.232505798E0,5.072321892E-1,6.420451278E0
6.461256259E0,5.023532867E0,1.466040373E0,-8.481663465E-2,5.233770219E0
6.465997874E0,4.181235790E0,9.543168545E-1,-4.804978371E-1,4.315591682E0
6.470739541E0,3.519325256E0,8.458309174E-1,-7.299163938E-1,3.692405468E0
6.475481155E0,3.290747643E0,8.307657242E-1,-9.759910107E-1,3.531536519E0
6.480222770E0,3.826409817E0,1.246973276E0,-1.269950867E0,4.220086449E0
6.484964436E0,4.634376526E0,1.573471069E0,-1.332137346E0,5.072262503E0
6.489706051E0,5.844930172E0,1.979347467E0,-1.199670553E0,6.286512113E0
6.494447666E0,6.304313660E0,2.289254427E0,-1.083118439E0,6.793982786E0
6.499189332E0,8.373687744E0,4.834426403E0,-1.212800264E0,9.744804234E0
6.503930947E0,1.400001907E1,1.381735611E1,-9.936212301E-1,1.969535852E1
6.508672561E0,1.042926407E1,1.039738178E1,-4.737120867E-1,1.473429673E1
6.513414228E0,4.375852108E0,4.437150002E0,-5.988686085E-1,6.260593056E0
6.518155843E0,2.428627014E0,2.287334919E0,-8.528909087E-1,3.443479796E0
6.522897457E0,2.120497704E0,1.715957999E0,-1.281482100E0,3.013837875E0
6.527639072E0,2.349749565E0,1.619287610E0,-1.694529533E0,3.318862113E0
6.532380739E0,2.797428131E0,1.721033573E0,-1.946314454E0,3.817813597E0
6.537122353E0,4.680777073E0,3.450406790E0,-1.976666451E0,6.141839405E0
6.541863968E0,7.904197693E0,7.318049908E0,-1.843320608E0,1.092831307E1
6.546605634E0,8.732988358E0,8.395668983E0,-1.809240580E0,1.224849766E1
6.551347249E0,7.707163334E0,6.875764847E0,-1.727588773E0,1.047191825E1
6.556088864E0,6.855571747E0,5.497528076E0,-1.570145965E0,8.926759618E0
6.560830478E0,6.384265423E0,4.652463913E0,-1.380885601E0,8.019420833E0
6.565572145E0,6.060906887E0,4.122814655E0,-1.226367116E0,7.432103960E0
6.570313759E0,5.947173595E0,3.753914356E0,-1.159399986E0,7.127759472E0
6.575055374E0,6.156852722E0,3.698353291E0,-9.896715283E-1,7.250110498E0
6.579797041E0,6.700492382E0,3.956336260E0,-7.525690794E-1,7.817643825E0
6.584538655E0,7.368574142E0,4.251215935E0,-4.572739601E-1,8.519261781E0
6.589280270E0,8.112112045E0,4.380840778E0,-5.058924556E-1,9.233312241E0
6.594021884E0,8.662440300E0,4.408407211E0,-5.543078780E-1,9.735460098E0
6.598763551E0,9.167518616E0,4.526037693E0,-4.135316312E-1,1.023227361E1
6.603505166E0,9.526678085E0,4.332420826E0,-2.896007895E-1,1.046954317E1
6.608246780E0,9.921735764E0,4.357002258E0,-1.045914292E-1,1.083675452E1
6.612988395E0,1.048200989E1,4.768439293E0,-9.530377388E-2,1.151605954E1
6.617730061E0,1.184506798E1,6.349950314E0,-1.917750716E0,1.357590779E1
6.622471676E0,1.347044182E1,8.769700050E0,-4.861956120E0,1.679282761E1
6.627213291E0,1.302762985E1,9.599445343E0,-4.398551941E0,1.676948865E1
6.631954905E0,1.220718765E1,9.846757889E0,-4.189321518E0,1.623343729E1
6.636696572E0,1.125846767E1,9.602768898E0,-4.951715946E0,1.560403011E1
6.641438186E0,9.856729507E0,8.329563141E0,-5.329195499E0,1.396198637E1
6.646179801E0,8.561871529E0,6.947415829E0,-5.021384239E0,1.211554912E1
6.650921416E0,7.882639885E0,6.064369678E0,-4.652415752E0,1.097987083E1
6.655663030E0,7.659909248E0,5.543956757E0,-4.222202778E0,1.035551363E1
6.660404697E0,7.820744038E0,5.235006809E0,-3.666586161E0,1.010015780E1
6.665146311E0,8.342622757E0,4.955798149E0,-2.882945299E0,1.012277943E1
6.669887926E0,8.806241035E0,4.414666176E0,-2.008757591E0,1.005356980E1
6.674629541E0,9.132401466E0,3.741006851E0,-1.147727013E0,9.935449970E0
6.679371207E0,9.230204582E0,2.963195801E0,-4.422788620E-1,9.704267957E0
6.684112822E0,9.018621445E0,2.199689150E0,-3.300440311E-2,9.283062771E0
6.688854436E0,8.598635674E0,1.565314770E0,2.983278930E-1,8.745041184E0
6.693596051E0,7.832255363E0,1.029466033E0,5.087130070E-1,7.915984671E0
6.698337666E0,6.175440788E0,1.957306266E-1,7.776717544E-1,6.227290965E0
6.703079280E0,4.574307919E0,-4.848654270E-1,1.071775436E0,4.723144080E0
6.707820947E0,1.224239826E0,-1.735833049E0,1.401622057E0,2.544881906E0
6.712562561E0,-3.642276764E0,-3.634649992E0,1.641037703E0,5.400913379E0
6.717304176E0,-1.043667126E1,-6.287946224E0,1.913662910E0,1.233387532E1
6.722045791E0,-2.010644150E1,-1.005221748E1,2.215739727E0,2.258817320E1
6.726787457E0,-3.063743591E1,-1.472539806E1,1.712149024E0,3.403558846E1
6.731529072E0,-3.863366318E1,-1.971021271E1,-2.354147434E0,4.343494475E1
6.736270686E0,-4.784616089E1,-2.468246078E1,-4.954176903E0,5.406498729E1
6.741012301E0,-5.764713669E1,-2.752974701E1,-2.807062149E0,6.394496803E1
6.745753916E0,-6.684310913E1,-2.473282051E1,3.561326981E0,7.136103067E1
6.750495582E0,-6.868930054E1,-1.728178406E1,5.758306503E0,7.106362053E1
6.755237197E0,-6.873689270E1,-6.158255100E0,7.307270914E-2,6.901224430E1
6.759978811E0,-6.866078949E1,3.140694141E0,-7.462704182E0,6.913653106E1
6.764720426E0,-6.857187653E1,8.775460243E0,-5.929830074E0,6.938496838E1
6.769462041E0,-6.139890671E1,1.031981373E1,-9.125812054E-1,6.226682186E1
6.774203655E0,-4.866158676E1,1.009056950E1,1.604844570E0,4.972268240E1
6.778945322E0,-3.826600647E1,9.520917892E0,2.157970428E0,3.949166956E1
6.783686936E0,-3.052383804E1,8.933190346E0,1.642289639E0,3.184656487E1
6.788428551E0,-2.510120010E1,8.484976768E0,1.398644149E-1,2.649687981E1
6.793170166E0,-2.179402161E1,8.211132050E0,-1.848296404E0,2.336275384E1
6.797911780E0,-2.051040459E1,8.080415726E0,-4.314247608E0,2.246291493E1
6.802653395E0,-2.017213821E1,8.110349655E0,-7.405001640E0,2.296795552E1
6.807395061E0,-2.061918068E1,8.155175209E0,-1.072639656E1,2.463154639E1
6.812136676E0,-2.156433296E1,8.050827026E0,-1.332519722E1,2.659693879E1
6.816878291E0,-2.236950874E1,7.868087769E0,-1.482934761E1,2.796804028E1
6.821619905E0,-2.274150085E1,7.413058758E0,-1.579927444E1,2.866611893E1
6.826361520E0,-2.220775223E1,7.049147606E0,-1.668239212E1,2.865618516E1
6.831103134E0,-2.060006523E1,6.797955513E0,-1.609140587E1,2.700941002E1
6.835844749E0,-1.744445992E1,6.534444809E0,-1.476297379E1,2.376875145E1
6.840586364E0,-1.345733356E1,6.127922535E0,-1.163197327E1,1.881366693E1
6.845328030E0,-8.073829651E0,5.740131378E0,-7.739630222E0,1.257130500E1
6.850069645E0,-4.412603378E0,5.058982849E0,-5.753569126E0,8.841263130E0
6.854811259E0,-2.011630058E0,4.328201294E0,-5.004830360E0,6.915801390E0
6.859552874E0,-5.087337494E-1,3.615892887E0,-4.715703011E0,5.964171886E0
6.864294489E0,1.113387108E0,2.997850895E0,-4.460806847E0,5.488673662E0
6.869036103E0,3.165120125E0,2.362344265E0,-3.846820354E0,5.513318662E0
6.873777718E0,5.077993393E0,1.643689632E0,-2.877478123E0,6.063630336E0
6.878519332E0,6.760879993E0,8.816270828E-1,-1.454917908E0,6.971624683E0
6.883260947E0,8.228971481E0,1.110041142E-1,2.892665863E-1,8.234802287E0
6.888002614E0,9.379689217E0,-6.075875759E-1,1.970648289E0,9.603706948E0
6.892744228E0,1.006809235E1,-1.209823370E0,3.282177210E0,1.065846346E1
6.897485843E0,1.038929462E1,-1.527378082E0,4.151701927E0,1.129189778E1
6.902227457E0,1.020266151E1,-1.500520945E0,4.743811607E0,1.135119437E1
6.906969072E0,9.777457237E0,-1.447734833E0,5.042038918E0,1.109579932E1
6.911710686E0,9.449873924E0,-1.329719305E0,5.077703953E0,1.080978020E1
6.916452301E0,1.108560371E1,-1.222426891E0,7.185701370E0,1.326722433E1
6.921193916E0,2.022835541E1,-2.551617146E0,2.054958344E1,2.894792725E1
6.925935530E0,2.647835159E1,-4.283342361E0,2.364825249E1,3.575877474E1
6.930677145E0,2.807126999E1,-4.845100880E0,2.072500992E1,3.522779070E1
6.935418759E0,2.756187248E1,-4.895292282E0,1.831268883E1,3.345108778E1
6.940160426E0,2.587313843E1,-5.310179710E0,1.934604073E1,3.273967917E1
6.944902041E0,8.807163239E0,-1.880027008E1,4.206559753E1,4.690981534E1
6.949643655E0,1.873801422E1,-1.483108139E1,5.988444138E1,6.447651100E1
6.954385270E0,1.753049850E1,-9.312421799E0,2.774370193E1,3.411381794E1
6.959126884E0,1.823366928E1,-3.765765190E0,3.745749474E0,1.899153290E1
6.963868499E0,2.707431030E1,7.098646164E-1,9.781719208E0,2.879590625E1
6.968610114E0,2.712637901E1,-5.627315044E-1,1.569634056E1,3.134536987E1
6.973351728E0,2.394317436E1,-1.700699329E-1,9.150568962E0,2.563274146E1
6.978093343E0,2.004095840E1,-1.536703110E-2,4.942681313E0,2.064147157E1
6.982834957E0,1.636461830E1,-2.149734497E-1,5.590620518E0,1.729456514E1
6.987576572E0,1.447091770E1,-2.738237381E-2,7.948446274E0,1.651017889E1
6.992318186E0,1.376945210E1,7.522940636E-1,8.030698776E0,1.595794098E1
6.997059801E0,1.323838234E1,1.237246394E0,6.847809792E0,1.495586990E1
7.001801416E0,1.357806683E1,2.400701284E0,4.303472996E0,1.444462340E1
7.006543030E0,1.391325569E1,3.653970718E0,3.447832108E0,1.479248905E1
7.011284645E0,1.286900806E1,3.938092709E0,5.302665710E0,1.446506849E1
7.016026259E0,1.150331020E1,3.923757553E0,6.252783775E0,1.366818656E1
7.020767926E0,1.022634506E1,3.846048594E0,5.967545033E0,1.244916932E1
7.025509541E0,8.690395355E0,3.194031715E0,5.177460670E0,1.060805868E1
7.030251103E0,8.234127045E0,3.645188808E0,3.398284197E0,9.624790134E0
7.034992770E0,7.722106934E0,4.064810276E0,1.772148609E0,8.904725081E0
7.039734384E0,7.141983986E0,4.140778065E0,7.306490541E-1,8.287811911E0
7.044475999E0,6.873725891E0,3.690620899E0,-1.010611951E-1,7.802499831E0
7.049217614E0,7.052901745E0,3.188483477E0,-9.538589716E-1,7.798698407E0
7.053959228E0,7.638171673E0,2.929293156E0,-1.765890598E0,8.369037848E0
7.058700843E0,8.070153236E0,2.755472898E0,-2.518652439E0,8.891772279E0
7.063442457E0,7.951305866E0,2.441723347E0,-3.249091148E0,8.929830411E0
7.068184072E0,7.179842949E0,1.969611645E0,-3.616160154E0,8.276842941E0
7.072925686E0,5.851057529E0,1.494137049E0,-3.703027725E0,7.083765529E0
7.077667301E0,4.526331902E0,1.115853786E0,-3.899730206E0,6.077886625E0
7.082408916E0,3.248976231E0,8.016438484E-1,-4.222008228E0,5.387377181E0
7.087150530E0,1.908455372E0,4.872987270E-1,-4.503744602E0,4.915625840E0
7.091892145E0,5.683298111E-1,1.565630436E-1,-4.833289146E0,4.869106153E0
7.096633759E0,-6.871347427E-1,-1.807773113E-1,-4.829685211E0,4.881669164E0
7.101375374E0,-1.769541740E0,-4.549741745E-1,-4.717752934E0,5.059196795E0
7.106116989E0,-2.385601044E0,-6.888852119E-1,-4.401782036E0,5.053844108E0
7.110858603E0,-2.102174759E0,-8.416790962E-1,-3.901138306E0,4.510703105E0
7.115600218E0,-5.613937378E-1,-7.339997292E-1,-3.262171745E0,3.390528429E0
7.120341832E0,1.613615036E0,-3.695414066E-1,-2.740369081E0,3.201552286E0
7.125083447E0,3.501945496E0,7.750463486E-2,-2.378258944E0,4.233880587E0
7.129825061E0,5.016284466E0,5.615863800E-1,-2.058272123E0,5.451144214E0
7.134566676E0,6.184627533E0,1.003128767E0,-1.774924278E0,6.512007466E0
7.139308239E0,7.128454208E0,1.384508252E0,-1.543991566E0,7.423990332E0
7.144049853E0,7.885694504E0,1.694958210E0,-1.375979662E0,8.182321258E0
7.148791468E0,8.461009979E0,1.959377527E0,-1.261625767E0,8.776078266E0
7.153533082E0,8.856871605E0,2.144943714E0,-1.200884104E0,9.191685416E0
7.158274697E0,9.106996536E0,2.319160223E0,-1.229045987E0,9.477681367E0
7.163016311E0,9.304947853E0,2.389076233E0,-1.314132571E0,9.696220099E0
7.167757926E0,9.379182816E0,2.455549240E0,-1.440943003E0,9.801791117E0
7.172499541E0,9.442385674E0,2.442155123E0,-1.553841233E0,9.876091911E0
7.177241155E0,9.439673424E0,2.370417356E0,-1.609697819E0,9.864960206E0
7.181982770E0,9.426177025E0,2.300112009E0,-1.644508839E0,9.841124828E0
7.186724384E0,9.397194862E0,2.226347685E0,-1.627238393E0,9.793457004E0
7.191465999E0,9.393492699E0,2.156291723E0,-1.591135263E0,9.768265481E0
7.196207614E0,9.716209412E0,2.157644510E0,-1.576776862E0,1.007702240E1
7.200949228E0,1.081646824E1,2.383053064E0,-1.665475488E0,1.120038998E1
7.205690843E0,1.182492065E1,2.583009720E0,-1.709603667E0,1.222388778E1
7.210432457E0,1.239924431E1,2.705468655E0,-1.877228498E0,1.282906103E1
7.215174072E0,1.248181152E1,2.782899380E0,-2.109880209E0,1.296116285E1
7.219915686E0,1.211499405E1,2.955289841E0,-2.119621754E0,1.264909543E1
7.224657301E0,1.163550091E1,3.147657394E0,-2.009857655E0,1.222015369E1
7.229398916E0,1.130356598E1,3.308864832E0,-1.963258266E0,1.194041764E1
7.234140478E0,1.076252937E1,3.730464220E0,-2.129788160E0,1.158811458E1
7.238882093E0,1.016643143E1,3.917441845E0,-2.281098843E0,1.113131127E1
7.243623707E0,9.753818512E0,3.233065367E0,-2.264420986E0,1.052222836E1
7.248365322E0,9.630805969E0,2.399668932E0,-2.212041616E0,1.016877390E1
7.253106936E0,9.374347687E0,1.931600809E0,-2.181703806E0,9.816787037E0
7.257848551E0,9.075904846E0,1.644112468E0,-2.186596870E0,9.479259489E0
7.262590166E0,9.022807121E0,1.645009041E0,-2.254477024E0,9.444562973E0
7.267331780E0,9.150547028E0,1.853678226E0,-2.429717541E0,9.647391419E0
7.272073395E0,9.377850533E0,2.271924496E0,-2.706630230E0,1.002155520E1
7.276815009E0,9.498801231E0,3.060081720E0,-3.095050335E0,1.044847652E1
7.281556624E0,9.194439888E0,4.313667297E0,-3.674353600E0,1.080029281E1
7.286298239E0,8.370544434E0,5.462128639E0,-4.216455936E0,1.084801199E1
7.291039853E0,7.933844090E0,5.339235783E0,-4.492098331E0,1.056561727E1
7.295781416E0,5.637259483E0,4.233080387E0,-5.157126427E0,8.734621745E0
7.300523030E0,7.007579803E-1,2.681461811E0,-6.552294254E0,7.114341796E0
7.305264645E0,-5.054452896E0,7.691070437E-1,-7.963794231E0,9.463669388E0
7.310006259E0,-1.218067074E1,-1.741905332E0,-9.311701775E0,1.543083808E1
7.314747874E0,-2.216997910E1,-4.524478436E0,-1.016754627E1,2.480640795E1
7.319489489E0,-3.549604416E1,-8.370343208E0,-1.027562904E1,3.788958100E1
7.324231103E0,-5.148558807E1,-1.524061966E1,-1.206966114E1,5.503379859E1
7.328972718E0,-6.723348236E1,-2.059778786E1,-6.598278999E0,7.062681715E1
7.333714332E0,-6.972187805E1,-2.085175705E1,9.479619980E0,7.338800478E1
7.338455947E0,-6.987638092E1,-1.479145432E1,2.924385834E1,7.717965394E1
7.343197509E0,-6.551210022E1,-7.364371777E0,4.800569153E1,8.155130695E1
7.347939124E0,-5.077075195E1,1.340731144E0,4.053319550E1,6.498004887E1
7.352680739E0,-3.238670731E1,1.581184292E1,3.644060135E1,5.125261567E1
7.357422353E0,-2.371382141E1,2.128664780E1,5.142693329E1,6.049955510E1
7.362163968E0,-1.858769226E1,2.026696968E1,5.524958801E1,6.171522777E1
7.366905582E0,-2.386092758E1,1.734710312E1,4.497726059E1,5.378865886E1
7.371647197E0,-2.845046043E1,1.521924400E1,3.459803391E1,4.730832947E1
7.376388811E0,-3.069034958E1,1.279485893E1,2.457452202E1,4.134625866E1
7.381130426E0,-3.189415169E1,1.099036121E1,1.600416183E1,3.733842722E1
7.385872041E0,-3.225491714E1,9.296546936E0,1.033005333E1,3.512143885E1
7.390613603E0,-3.178177261E1,7.820582867E0,7.460485935E0,3.356935265E1
7.395355218E0,-3.029443741E1,6.817418575E0,6.845483780E0,3.179765372E1
7.400096832E0,-2.925565147E1,5.929802895E0,6.193350792E0,3.048628051E1
7.404838447E0,-2.848315811E1,5.207794666E0,5.756395817E0,2.952198357E1
7.409580061E0,-2.675490761E1,4.885837078E0,6.117999077E0,2.787698688E1
7.414321676E0,-2.362883377E1,5.128073215E0,6.748865128E0,2.510310938E1
7.419063291E0,-1.958393097E1,5.529967308E0,6.956173420E0,2.150579548E1
7.423804853E0,-1.607502174E1,5.600437641E0,6.475456238E0,1.821270873E1
7.428546468E0,-1.348618507E1,5.223585129E0,5.466710567E0,1.546117570E1
7.433288082E0,-1.111241722E1,4.098498821E0,5.315558434E0,1.298224443E1
7.438029697E0,-8.428590775E0,2.948456287E0,4.104942322E0,9.827771283E0
7.442771311E0,-5.600075722E0,1.861766219E0,2.265105247E0,6.321212172E0
7.447512926E0,-2.758664131E0,1.179395914E0,5.613231659E-1,3.052259197E0
7.452254541E0,-6.668548584E-1,7.465150356E-1,-8.752591610E-1,1.329683684E0
7.456996155E0,9.091863632E-1,3.094265461E-1,-1.452380657E0,1.741199071E0
7.461737718E0,2.463684082E0,1.455451250E-1,-1.520219326E0,2.898618540E0
7.466479332E0,4.448821068E0,1.635768414E-1,-1.387539864E0,4.663049769E0
7.471220947E0,6.546058178E0,3.738296032E-2,-1.196338892E0,6.654585028E0
7.475962561E0,8.551794052E0,-3.961459398E-1,-1.378408670E0,8.671223880E0
7.480704176E0,1.006144047E1,-8.996162415E-1,-1.980621338E0,1.029391833E1
7.485445791E0,1.172307682E1,-1.341484189E0,-2.124242783E0,1.198926676E1
7.490187405E0,1.324217319E1,-1.722430348E0,-1.992427588E0,1.350154380E1
7.494928968E0,1.327982330E1,-2.048354149E0,-2.075081825E0,1.359615483E1
7.499670582E0,1.267716312E1,-2.530931234E0,-2.564532280E0,1.317926036E1
7.504412197E0,1.261020851E1,-2.962890625E0,-2.478987694E0,1.318868680E1
7.509153811E0,1.282734680E1,-3.304514408E0,-2.342029572E0,1.345160749E1
7.513895426E0,1.296142387E1,-3.732336760E0,-2.425363064E0,1.370442383E1
7.518637041E0,1.182404995E1,-4.435146332E0,-2.653426886E0,1.290423785E1
7.523378655E0,1.077148438E1,-5.135165215E0,-2.662533760E0,1.222636019E1
7.528120218E0,1.009223461E1,-5.961753368E0,-1.752888918E0,1.185193327E1
7.532861832E0,9.999540329E0,-6.793884754E0,-2.006011009E-1,1.209081956E1
7.537603447E0,9.991968155E0,-7.601032257E0,-3.715562820E-2,1.255454099E1
7.542345061E0,1.078215313E1,-8.180196762E0,-9.141130447E-1,1.356488289E1
7.547086676E0,1.126947403E1,-8.520429611E0,-1.997887254E0,1.426850795E1
7.551828291E0,1.162385559E1,-8.799499512E0,-2.605292320E0,1.480988719E1
7.556569905E0,1.624065781E1,-8.163150787E0,-2.649554253E0,1.836889040E1
7.561311468E0,3.686400223E1,-7.101857662E0,-2.058917999E0,3.759827371E1
7.566053082E0,3.545049286E1,-5.863499641E0,4.041017532E0,3.615864896E1
7.570794697E0,3.841399765E1,-6.067178726E0,5.232057571E0,3.924054408E1
7.575536311E0,3.687914658E1,-8.178829193E0,8.747606277E-1,3.778531335E1
7.580277926E0,3.115214920E1,-1.001162529E1,-3.654466152E0,3.292482595E1
7.585019541E0,2.518109512E1,-1.108477306E1,-7.048643112E0,2.840146326E1
7.589761155E0,2.056791115E1,-1.074914265E1,-8.585568428E0,2.474459581E1
7.594502718E0,1.721175766E1,-9.947492599E0,-8.638532639E0,2.167536521E1
7.599244332E0,1.359527779E1,-1.040703392E1,-7.794927597E0,1.881219895E1
7.603985947E0,1.066914368E1,-1.083945847E1,-6.205042362E0,1.642641280E1
7.608727561E0,8.149265289E0,-1.116506100E1,-3.911725283E0,1.436560846E1
7.613469176E0,6.541665554E0,-1.083434296E1,-1.215894222E0,1.271435308E1
7.618210791E0,6.051650047E0,-1.011182404E1,3.893065453E-1,1.179080206E1
7.622952353E0,6.257051468E0,-9.508618355E0,-2.005767822E-1,1.138440807E1
7.627693968E0,6.199212074E0,-8.533596039E0,-1.460921764E0,1.064832307E1
7.632435582E0,5.871105194E0,-7.399517059E0,-2.196250439E0,9.697744320E0
7.637177197E0,5.944386482E0,-6.255777836E0,-2.206126213E0,8.907158910E0
7.641918811E0,6.343744278E0,-5.308410645E0,-2.376378775E0,8.606363408E0
7.646660426E0,6.276845932E0,-4.625253677E0,-2.870856524E0,8.308645113E0
7.651401989E0,5.876135826E0,-4.110483646E0,-3.322023869E0,7.903220270E0
7.656143603E0,5.571237087E0,-3.797910213E0,-3.303511858E0,7.508394986E0
7.660885218E0,5.489782333E0,-3.855510712E0,-3.140574455E0,7.407150655E0
7.665626832E0,5.357302666E0,-4.003974915E0,-3.031936646E0,7.343374346E0
7.670368447E0,5.179705620E0,-3.926032543E0,-2.797972679E0,7.076138280E0
7.675110061E0,5.465598106E0,-3.696330547E0,-2.440500498E0,7.035031262E0
7.679851676E0,6.141323566E0,-3.453472614E0,-2.869076490E0,7.607491581E0
7.684593239E0,5.870841980E0,-3.131850719E0,-2.958891392E0,7.282191480E0
7.689334853E0,5.632288456E0,-2.876471281E0,-2.595115185E0,6.836035628E0
7.694076468E0,5.981013298E0,-2.941470861E0,-2.484882832E0,7.113326478E0
7.698818082E0,5.911675453E0,-2.533821583E0,-2.499039888E0,6.900243390E0
7.703559697E0,6.072224617E0,-2.087973595E0,-2.308140516E0,6.823419830E0
7.708301311E0,6.222783089E0,-1.695934534E0,-1.891370058E0,6.721346890E0
7.713042926E0,6.350312233E0,-1.459084749E0,-1.728759527E0,6.741216750E0
7.717784489E0,6.273124695E0,-1.681282520E0,-2.579665184E0,6.988095364E0
7.722526103E0,6.235611916E0,-1.931885362E0,-3.645552397E0,7.476970596E0
7.727267718E0,5.959455013E0,-1.809624076E0,-3.703410625E0,7.246039857E0
7.732009332E0,6.035665989E0,-1.554113865E0,-3.342581749E0,7.072297122E0
7.736750947E0,5.930182457E0,-1.225225210E0,-2.997207165E0,6.756588753E0
7.741492509E0,6.220832348E0,-1.099737883E0,-3.410782814E0,7.179249119E0
7.746234124E0,6.726929665E0,-1.042535305E0,-3.850349903E0,7.820719721E0
7.750975739E0,6.979181767E0,-1.024514914E0,-4.187613487E0,8.203335642E0
7.755717353E0,6.851394653E0,-8.926959038E-1,-4.152029514E0,8.060884800E0
7.760458968E0,6.565265179E0,-6.305762529E-1,-3.712909222E0,7.568753409E0
7.765200582E0,6.263797760E0,-2.766888142E-1,-2.998806477E0,6.950148154E0
7.769942197E0,5.778702736E0,1.233344078E-1,-2.463788033E0,6.283221161E0
7.774683759E0,5.290783882E0,6.844358444E-1,-2.262986183E0,5.794993786E0
7.779425374E0,5.252276421E0,1.002897501E0,-2.393015623E0,5.858219420E0
7.784166989E0,5.580966949E0,9.337599277E-1,-2.756108761E0,6.294063488E0
7.788908603E0,6.031955242E0,6.475946903E-1,-3.147254467E0,6.834403676E0
7.793650218E0,6.401270866E0,2.545943260E-1,-3.533695221E0,7.316289284E0
7.798391832E0,6.769185066E0,-1.371946335E-1,-4.280955315E0,8.010447380E0
7.803133395E0,7.201164722E0,-4.457564354E-1,-5.260191441E0,8.928890533E0
7.807875009E0,7.512239933E0,-6.709620953E-1,-5.685958862E0,9.445319853E0
7.812616624E0,7.781253815E0,-7.504928112E-1,-5.973083496E0,9.838133809E0
7.817358239E0,7.922276974E0,-7.033424377E-1,-6.145532608E0,1.005110611E1
7.822099853E0,8.248994827E0,-8.110480309E-1,-6.339579582E0,1.043522802E1
7.826841468E0,8.637379646E0,-9.454030991E-1,-6.473664284E0,1.083542539E1
7.831583082E0,9.040413857E0,-1.106956959E0,-6.542675018E0,1.121432266E1
7.836324645E0,9.478270531E0,-1.281730294E0,-6.448187351E0,1.153514477E1
7.841066259E0,9.984802246E0,-1.611003637E0,-6.669831276E0,1.211520771E1
7.845807874E0,1.041974640E1,-1.819760203E0,-6.712713718E0,1.252769602E1
7.850549489E0,1.088951683E1,-1.996816874E0,-6.644128799E0,1.291175054E1
7.855291103E0,1.138343334E1,-2.099120140E0,-6.550314903E0,1.330020621E1
7.860032718E0,1.176419926E1,-2.100667477E0,-6.349608421E0,1.353243197E1
7.864774280E0,1.165030003E1,-1.890417218E0,-6.276106834E0,1.336759832E1
7.869515895E0,1.085919571E1,-1.468693614E0,-5.897484303E0,1.244425624E1
7.874257509E0,1.013192654E1,-8.049232960E-1,-5.254176140E0,1.144159970E1
7.878999124E0,9.405336380E0,-1.260828972E-1,-4.673617363E0,1.050328275E1
7.883740739E0,8.853075981E0,6.391553879E-1,-4.275821686E0,9.852315719E0
7.888482353E0,8.411281586E0,1.561146259E0,-4.271203041E0,9.561904150E0
7.893223968E0,7.933789253E0,2.685123444E0,-4.748279095E0,9.628138667E0
7.897965582E0,7.266695976E0,3.946727514E0,-5.681720734E0,1.003311911E1
7.902707145E0,6.644424915E0,5.747293472E0,-6.343966007E0,1.083631254E1
7.907448759E0,5.325005054E0,9.030567169E0,-6.915987968E0,1.255936749E1
7.912190374E0,-5.451725006E0,1.031969547E1,-8.872173309E0,1.466058933E1
7.916931989E0,-2.884434319E1,9.154720306E0,-1.032316017E1,3.197456292E1
7.921673603E0,-6.425144196E1,2.048057318E0,-1.192332458E1,6.538048640E1
7.926415218E0,-6.950580597E1,-9.892018318E0,-7.208824635E0,7.057532318E1
7.931156832E0,-6.976017761E1,-1.167375374E1,7.949783802E-1,7.073465132E1
7.935898447E0,-6.947776031E1,1.366773844E0,5.866753578E0,6.973841156E1
7.940640009E0,-4.445590591E1,1.687451553E1,1.262116814E1,4.919726344E1
7.945381624E0,-1.797913551E1,2.525452995E1,1.955966568E1,3.665543777E1
7.950123239E0,-1.107324600E1,2.523657608E1,2.136877441E1,3.487299914E1
