"Time (s)","Linear Acceleration x (m/s^2)","Linear Acceleration y (m/s^2)","Linear Acceleration z (m/s^2)","Absolute acceleration (m/s^2)"
1.131416666E-3,1.980887559E-1,4.857439917E-1,-8.160935497E-1,9.701520822E-1
1.112041667E-2,3.498763347E-1,2.548275054E-1,-1.037291379E0,1.123976829E0
2.110941667E-2,3.020588283E-1,3.273130989E-1,-1.152447613E0,1.235519689E0
3.109841667E-2,2.065314044E-1,5.378017527E-1,-1.157970309E0,1.293360422E0
4.108841667E-2,1.736139192E-1,5.799549150E-1,-8.581578344E-1,1.050202059E0
5.107741667E-2,3.594929579E-1,4.376266694E-1,-8.328768128E-1,1.007192173E0
6.106641667E-2,4.107025802E-1,3.259664851E-1,-9.420086610E-1,1.078105318E0
7.105541667E-2,2.994661729E-1,2.933518857E-1,-9.094045866E-1,1.001375064E0
8.104441667E-2,4.532877056E-1,9.292044282E-2,-8.127857798E-1,9.352671686E-1
9.103441667E-2,7.356305999E-1,1.256467241E-1,-8.131845599E-1,1.103724878E0
1.010234167E-1,7.442331697E-1,2.674130523E-1,-8.976019818E-1,1.196278425E0
1.110124167E-1,5.588654700E-1,4.084344453E-1,-8.348543411E-1,1.084495772E0
1.210014167E-1,3.335930085E-1,5.776388329E-1,-9.496036094E-1,1.160473150E0
1.309904167E-1,2.658820320E-1,7.877509260E-1,-1.046889583E0,1.336870441E0
1.409794167E-1,4.065441135E-1,9.317140532E-1,-1.061249760E0,1.469564645E0
1.509694167E-1,8.322947225E-1,8.635045284E-1,-1.186484841E0,1.687039079E0
1.609584167E-1,1.133001017E0,6.345930523E-1,-1.054547682E0,1.672862953E0
1.709474167E-1,1.263073425E0,4.285722560E-1,-6.999175608E-1,1.506291223E0
1.809364167E-1,1.239695965E0,3.353015649E-1,-3.064899945E-1,1.320306533E0
1.909254167E-1,1.001136583E0,3.419469255E-1,2.419577837E-3,1.057926279E0
2.009144167E-1,6.520413630E-1,4.299364114E-1,8.888820291E-2,7.860689344E-1
2.109044167E-1,1.924770734E-1,6.124993479E-1,-7.839245081E-2,6.467984627E-1
2.208934167E-1,-1.736851456E-1,8.656878787E-1,-2.597368276E-1,9.203506141E-1
2.308824167E-1,-6.058468245E-1,1.037628179E0,-5.397213936E-1,1.317202260E0
2.408714167E-1,-6.886471257E-1,9.923917794E-1,-9.837425780E-1,1.557827259E0
2.508604167E-1,-6.455359702E-1,8.533572704E-1,-1.095502165E0,1.531358976E0
2.608494167E-1,-5.385241762E-1,9.403199852E-1,-9.409468067E-1,1.435127470E0
2.708394167E-1,-2.600231950E-1,1.070350367E0,-8.831763160E-1,1.411829443E0
2.808284167E-1,6.769760102E-2,1.080251457E0,-7.482255024E-1,1.315814416E0
2.908174167E-1,2.971514064E-1,9.925350362E-1,-3.186317378E-1,1.083951540E0
3.008064167E-1,2.165561633E-1,9.502690226E-1,-1.756304777E-1,9.903301731E-1
3.107954167E-1,-2.994293354E-1,9.803003222E-1,1.058468825E-1,1.030461164E0
3.207844167E-1,-8.247906983E-1,1.306229970E0,3.370557296E-1,1.581177724E0
3.307744167E-1,-8.103545076E-1,1.447564774E0,1.199070972E-1,1.663278664E0
3.407634167E-1,-5.900106642E-1,1.474500557E0,3.374428153E-3,1.588167455E0
3.507524167E-1,-2.899087527E-1,1.457697998E0,3.941608071E-3,1.486252359E0
3.607414167E-1,-3.499707672E-1,1.084250953E0,-5.472327268E-1,1.263939604E0
3.707304167E-1,-7.120514104E-1,9.176754731E-1,-1.142521380E0,1.629263818E0
3.807194167E-1,-9.194150198E-1,8.704036582E-1,-1.244495067E0,1.775301236E0
3.907094167E-1,-8.302826956E-1,8.568118054E-1,-1.401859428E0,1.840843741E0
4.006984167E-1,-6.538745382E-1,6.831962782E-1,-1.775445052E0,2.011594939E0
4.106874167E-1,-2.848158279E-1,9.630837804E-1,-2.667165320E0,2.849986187E0
4.206764167E-1,6.686519140E-1,1.816484320E0,-3.523556710E0,4.020219218E0
4.306654167E-1,2.133307807E0,2.606975836E0,-4.184621277E0,5.371999669E0
4.406544167E-1,2.707346801E0,3.005143740E0,-4.493112189E0,6.045549830E0
4.506444167E-1,1.779745387E0,2.662970527E0,-3.859170517E0,5.015187210E0
4.606334167E-1,1.610352427E-1,1.786696265E0,-2.395069233E0,2.992419175E0
4.706224167E-1,-1.233683565E0,1.091059451E0,9.855832815E-2,1.649878665E0
4.806114167E-1,-1.725223025E0,6.128203601E-1,2.103718264E0,2.788830187E0
4.906004167E-1,-2.704922838E0,5.225492907E-1,1.304582224E0,3.048212608E0
5.005894167E-1,-2.592224773E0,1.553126312E0,-4.163468975E0,5.144541235E0
5.105794167E-1,-5.202384710E-1,2.130023718E0,-2.424852026E0,3.269182841E0
5.205684167E-1,5.274577358E-1,1.739998646E0,-7.761418641E-1,1.976917587E0
5.305574167E-1,3.576721349E-1,1.256967763E0,-6.239400101E-1,1.448170725E0
5.405464167E-1,-1.798939750E-1,1.244174055E0,-7.643252259E-1,1.471232127E0
5.505354167E-1,-7.537557989E-2,1.070631033E0,-2.072264922E-1,1.093103429E0
5.605244167E-1,1.951888293E-2,6.195551831E-1,-7.099221468E-2,6.239146626E-1
5.705144167E-1,-1.114619344E0,6.410881394E-1,-9.516454571E-1,1.599687270E0
5.805034167E-1,-2.156772098E0,6.050102341E-1,-1.601584527E0,2.753684126E0
5.904924167E-1,-2.338798260E0,3.790188575E-1,-1.779487233E0,2.963141476E0
6.004814167E-1,-1.844203338E0,3.373130071E-1,-1.895833375E0,2.666280219E0
6.104704167E-1,-1.322008097E0,5.130791402E-1,-2.039563783E0,2.484104675E0
6.204594167E-1,-1.217771537E0,8.269874972E-1,-1.928635086E0,2.426212920E0
6.304494167E-1,-1.370834686E0,1.054618433E0,-1.418531009E0,2.236881311E0
6.404384167E-1,-1.223417024E0,1.417217140E0,-9.829157817E-1,2.114563092E0
6.504274167E-1,-1.269623769E0,2.134441289E0,2.554344463E-1,2.496603871E0
6.604164167E-1,-1.887490276E0,2.300525018E0,-3.104169846E-1,2.991887966E0
6.704054167E-1,-1.866932927E0,1.846097544E0,-1.023319457E0,2.817924308E0
6.803944167E-1,-8.829158226E-1,1.534413468E0,-6.029648781E-1,1.870168892E0
6.903844167E-1,2.708225638E-2,1.580457952E0,-3.668841308E-1,1.622709078E0
7.003734167E-1,8.799077225E-1,1.913038223E0,-6.622632462E-1,2.207384300E0
7.103624167E-1,1.407725647E0,2.386362728E0,-1.741517168E-1,2.776102914E0
7.203514167E-1,1.528788446E0,2.773181187E0,1.246912891E-1,3.169112798E0
7.303404167E-1,1.481959850E0,3.056434346E0,2.776971352E-1,3.408095012E0
7.403294167E-1,1.096824805E0,2.749042711E0,1.366537567E0,3.260013099E0
7.503194167E-1,8.261358503E-1,1.889919502E0,2.339761004E0,3.119098864E0
7.603084167E-1,3.641625443E-1,1.494346592E0,3.118927048E0,3.477555467E0
7.702974167E-1,-1.196661919E-1,1.350885156E0,4.077088643E0,4.296726952E0
7.802864167E-1,-1.872921646E-1,9.824175990E-1,5.002442095E0,5.101436034E0
7.902754167E-1,1.088511819E0,1.498041447E0,4.984492897E0,5.317344788E0
8.002644167E-1,2.399140649E0,1.988943853E0,4.692937860E0,5.633421630E0
8.102544167E-1,3.215468380E0,2.144409038E0,3.615649772E0,5.292508885E0
8.202434167E-1,3.782577839E0,2.181465182E0,2.688632203E0,5.127906841E0
8.302324167E-1,3.675263305E0,2.293653955E0,3.003759704E0,5.271715204E0
8.402214167E-1,2.909570416E0,3.183989017E0,3.446782769E0,5.521204354E0
8.502104167E-1,1.995916073E0,3.058758615E0,3.724069430E0,5.216165100E0
8.602027500E-1,1.516795807E0,1.951594763E0,3.041842620E0,3.919464015E0
8.701927500E-1,5.457124507E-1,1.569592656E0,2.257311755E0,2.803012584E0
8.801817500E-1,8.397964078E-1,1.083082679E0,2.285157658E0,2.664633487E0
8.901707500E-1,1.702384093E0,7.979297590E-1,2.859191098E0,3.421955177E0
9.001597500E-1,2.060664631E0,6.791260314E-1,3.633579090E0,4.232073710E0
9.101487500E-1,2.310870497E0,1.579648697E0,3.561941927E0,4.530214427E0
9.201377500E-1,1.808963631E0,2.240201048E0,3.707249329E0,4.694097117E0
9.301277500E-1,9.767136401E-1,2.119862427E0,4.329482537E0,4.918557236E0
9.401167500E-1,4.155592775E-1,1.845085391E0,4.091199728E0,4.507210316E0
9.501057500E-1,1.190879023E-1,1.563691646E0,3.196946447E0,3.560867882E0
9.600947500E-1,-2.337827915E-1,1.308968806E0,2.738815931E0,3.044530577E0
9.700837500E-1,-8.055533588E-1,1.107002469E0,2.321718836E0,2.695319839E0
9.800727500E-1,-1.688986952E0,7.600567585E-1,2.152547777E0,2.839687507E0
9.900617500E-1,-2.939632705E0,2.810271245E-1,1.866324817E0,3.493362994E0
1.000051750E0,-3.970906715E0,-2.487522483E-1,1.190511818E0,4.152986420E0
1.010040750E0,-4.323571587E0,-3.460429001E-1,7.440488362E-1,4.400752847E0
1.020029750E0,-4.828978010E0,-2.782771790E-1,3.887006772E-1,4.852582305E0
1.030018750E0,-5.649600813E0,-7.232336256E-1,2.350267866E-1,5.700552063E0
1.040007750E0,-6.207215856E0,-1.353323152E0,-3.108201501E-1,6.360630583E0
1.049996750E0,-6.578197131E0,-2.103208387E0,-6.474446476E-1,6.936522730E0
1.059986750E0,-6.883226491E0,-2.929157419E0,-4.397243580E-1,7.493472334E0
1.069975750E0,-6.855707740E0,-3.292765647E0,5.948118129E-1,7.628685032E0
1.079964750E0,-6.982781185E0,-3.521953112E0,1.610642156E0,7.984832807E0
1.089953750E0,-7.243473448E0,-3.238747607E0,1.149108561E0,8.017346452E0
1.099942750E0,-7.314365090E0,-2.616478146E0,1.671852564E0,7.946130225E0
1.109931750E0,-7.016587447E0,-1.908232689E0,2.343497375E0,7.639753356E0
1.119921750E0,-6.106175970E0,-1.278087906E0,2.756566031E0,6.820377552E0
1.129910750E0,-4.773787311E0,-7.599311896E-1,2.538982074E0,5.460125518E0
1.139899750E0,-3.654207482E0,-1.206207499E-1,2.087934875E0,4.210374535E0
1.149888750E0,-3.035739881E0,5.092822507E-1,1.749727829E0,3.540710735E0
1.159877750E0,-2.959956458E0,8.612989587E-1,1.381202384E0,3.378002095E0
1.169866750E0,-2.785941566E0,7.937910998E-1,8.933507636E-1,3.031443601E0
1.179855750E0,-2.591490655E0,7.744457330E-1,6.835137820E-1,2.789763628E0
1.189845750E0,-2.386064520E0,8.413788106E-1,8.392248425E-1,2.665618228E0
1.199834750E0,-1.937654416E0,8.574915442E-1,7.002549452E-1,2.231625724E0
1.209823750E0,-1.468890738E0,9.829245526E-1,1.288112372E-1,1.772109763E0
1.219812750E0,-1.079984239E0,1.116179820E0,-4.468529910E-2,1.553776085E0
1.229801750E0,-7.008782583E-1,1.128467305E0,-1.217682660E-1,1.333977624E0
1.239790750E0,-3.124389517E-1,9.616041425E-1,-2.846816343E-1,1.050401951E0
1.249780750E0,1.935978019E-1,6.395155308E-1,-6.254830903E-1,9.152536912E-1
1.259769750E0,6.815228051E-1,2.946423662E-1,-8.504009181E-1,1.128923903E0
1.269758750E0,9.720960939E-1,6.675605312E-2,-1.124162877E0,1.487672464E0
1.279747750E0,9.459719038E-1,-5.369732022E-2,-1.453524256E0,1.735073199E0
1.289736750E0,9.508929205E-1,1.030713554E-1,-1.569520735E0,1.837992489E0
1.299725750E0,1.189468675E0,3.823223881E-1,-1.647205965E0,2.067436487E0
1.309715750E0,1.688796333E0,6.532405539E-1,-1.715377191E0,2.494248420E0
1.319704750E0,2.434993436E0,8.494772042E-1,-1.894772691E0,3.200151263E0
1.329693750E0,2.819236196E0,1.075469750E0,-2.282593946E0,3.783511998E0
1.339682750E0,2.791122783E0,1.291426866E0,-2.836070330E0,4.183472799E0
1.349671750E0,2.685168312E0,1.652158118E0,-3.321925419E0,4.579841024E0
1.359660750E0,2.572770794E0,2.071533143E0,-3.106066682E0,4.534098516E0
1.369650750E0,3.032644365E0,2.285182655E0,-2.223752831E0,4.400462278E0
1.379639750E0,3.823308958E0,2.775741390E0,-2.294862574E0,5.252506629E0
1.389628750E0,4.070439774E0,3.282268141E0,-3.045457368E0,6.051163085E0
1.399617750E0,3.771160566E0,3.452595486E0,-3.177620230E0,6.019911787E0
1.409606750E0,3.353602125E0,3.137172115E0,-3.166219913E0,5.577942688E0
1.419595750E0,2.807206720E0,2.230419534E0,-3.123520036E0,4.755161225E0
1.429584750E0,2.410415835E0,1.333014018E0,-2.675194132E0,3.839751882E0
1.439574750E0,2.018013870E0,5.943782419E-1,-1.978910615E0,2.888209255E0
1.449563750E0,1.376093672E0,-2.418713911E-1,-1.584788400E0,2.112744622E0
1.459552750E0,6.481235093E-1,-9.091994955E-1,-1.428836142E0,1.813361664E0
1.469541750E0,1.814765239E-1,-1.390034165E0,-1.037331725E0,1.743899600E0
1.479530750E0,-2.293114257E-1,-1.508082140E0,-6.558400798E-1,1.660428162E0
1.489519750E0,-4.277811277E-1,-1.332459117E0,-8.287498480E-1,1.626428696E0
1.499509750E0,-8.327008116E-1,-1.110957233E0,-1.210109931E0,1.841733602E0
1.509498750E0,-1.495589710E0,-1.292029276E0,-6.424984878E-1,2.078204161E0
1.519487750E0,-1.479676512E0,-1.751291959E0,-2.500684565E-1,2.306295805E0
1.529476750E0,-8.103936839E-1,-1.852348656E0,1.736833549E-1,2.029310073E0
1.539465750E0,-1.737734020E-2,-1.436601244E0,1.046756852E0,1.777589664E0
1.549454750E0,2.373601180E-1,-6.066036369E-1,1.065096644E0,1.248494557E0
1.559444750E0,4.129303694E-3,2.477515339E-1,9.506888527E-1,9.824495754E-1
1.569433750E0,-1.942445040E-1,5.635296477E-1,9.344037724E-1,1.108335239E0
1.579422750E0,-1.128688037E-1,8.831912264E-1,6.152191803E-1,1.082248007E0
1.589411750E0,-4.237026948E-1,1.545951632E0,5.765687925E-1,1.703502860E0
1.599400750E0,-9.377682602E-1,2.204980637E0,1.096642372E0,2.635142010E0
1.609389750E0,-1.938967116E0,2.894263574E0,1.059767784E0,3.641354538E0
1.619378750E0,-2.874149737E0,3.946547214E0,5.368890023E-1,4.911641419E0
1.629368750E0,-3.515156600E0,3.914774906E0,1.133400308E0,5.382042805E0
1.639357750E0,-3.358724871E0,3.138628365E0,1.953555334E0,4.994837256E0
1.649346750E0,-3.222454925E0,1.987513039E0,1.408029702E0,4.039427121E0
1.659335750E0,-3.712627013E0,1.419441859E0,6.846542814E-1,4.033257494E0
1.669324750E0,-4.247654847E0,1.896412542E0,4.867485434E-1,4.677165421E0
1.679313750E0,-4.775752560E0,2.480447352E0,1.895602995E-1,5.384827267E0
1.689303750E0,-4.640989442E0,2.486243404E0,2.520910084E-1,5.271028282E0
1.699292750E0,-4.266346641E0,2.556669901E0,2.234571934E-1,4.978775729E0
1.709281750E0,-4.365314859E0,1.958882148E0,1.062521530E0,4.901239138E0
1.719270750E0,-4.650246754E0,1.079925182E0,1.476042468E0,4.996972548E0
1.729259750E0,-4.777636533E0,6.758828001E-1,4.000711727E-1,4.841764694E0
1.739248750E0,-4.688380541E0,9.498443685E-1,-3.791881344E-1,4.798635229E0
1.749237750E0,-4.661293314E0,1.474661356E0,1.956685933E-1,4.892909939E0
1.759227750E0,-4.797742184E0,1.121816097E0,3.833653852E-1,4.942041121E0
1.769216750E0,-4.520934411E0,3.390785739E-2,2.411508679E-2,4.521125880E0
1.779205750E0,-3.795814766E0,-8.675566489E-1,-2.061821795E-1,3.899150595E0
1.789194750E0,-2.954973460E0,-6.037413883E-1,-2.814358449E-1,3.029121647E0
1.799183750E0,-2.127861418E0,2.474032956E-1,-2.497489062E-1,2.156705153E0
1.809172750E0,-1.547462699E0,3.936920066E-1,-1.874909699E-3,1.596758503E0
1.819161750E0,-1.008785618E0,-2.266241916E-1,2.786785904E-1,1.070826178E0
1.829151750E0,-3.637166941E-1,-1.287042770E0,9.882636452E-1,1.662959398E0
1.839140750E0,-4.484580517E-2,-1.872579730E0,1.019357676E0,2.132523403E0
1.849129750E0,4.548742014E-1,-1.977261116E0,7.009146573E-1,2.146567822E0
1.859115000E0,1.451543219E0,-1.493488513E0,3.010743034E-1,2.104312570E0
1.869104000E0,2.521966676E0,3.597192451E-1,-8.619390826E-1,2.689359186E0
1.879093000E0,3.278903360E0,2.147281483E0,-2.153124751E0,4.471909123E0
1.889083000E0,4.181742108E0,3.034821868E0,-2.174867038E0,5.605992995E0
1.899072000E0,4.681077368E0,3.656178578E0,-2.133502665E0,6.311256669E0
1.909061000E0,5.380885001E0,4.154041801E0,-2.122967152E0,7.121585232E0
1.919050000E0,6.563746322E0,3.813301741E0,-1.104970488E0,7.671049194E0
1.929039000E0,8.306705999E0,2.017948089E0,8.484532106E-1,8.590305692E0
1.939028000E0,1.007827493E1,-7.563157099E-1,2.602441320E0,1.043629915E1
1.949017000E0,1.101707464E1,-3.180327491E0,4.357955554E0,1.226711837E1
1.959007000E0,1.138558020E1,-5.311501940E0,5.377044550E0,1.366587346E1
1.968996000E0,1.072410224E1,-7.024225080E0,6.180757205E0,1.423193123E1
1.978985000E0,8.959911323E0,-8.419271332E0,6.243224180E0,1.378919827E1
1.988974000E0,7.745428260E0,-8.386159719E0,6.663394572E0,1.321817540E1
1.998963000E0,6.808661043E0,-5.041999093E0,6.379606977E0,1.060561197E1
2.008952000E0,5.743939791E0,-9.688488427E-1,5.446089642E0,7.974421909E0
2.018942000E0,4.840675950E0,5.549703473E-1,4.667792202E0,6.747475067E0
2.028931000E0,3.944749780E0,6.979827172E-1,3.181434661E0,5.115638494E0
2.038920000E0,3.040818188E0,9.667415062E-1,2.641780218E0,4.142483206E0
2.048909000E0,2.028766900E0,1.358187451E0,2.371007355E0,3.403269629E0
2.058898000E0,9.864153403E-1,1.727251424E0,1.881957933E0,2.738280184E0
2.068887000E0,3.160361588E-2,1.741228901E0,2.063307280E0,2.700021075E0
2.078876000E0,-4.867538059E-1,1.435635284E0,1.579168933E0,2.189007185E0
2.088866000E0,-2.250347722E-1,6.091718437E-1,3.351922220E0,3.414251536E0
2.098855000E0,8.263039577E-1,-1.061096856E0,4.046083782E0,4.263742339E0
2.108844000E0,-8.287188578E-1,1.543651045E0,-3.347314614E-1,1.783726057E0
2.118833000E0,-3.139043224E0,1.660772383E0,4.480354442E0,5.717108814E0
2.128822000E0,-4.458107248E0,2.234116874E0,1.815023393E0,5.306628719E0
2.138811000E0,-5.547507259E0,3.271411031E0,2.074749988E-1,6.443602470E0
2.148800000E0,-5.173491279E0,1.205277719E0,1.151512059E0,5.435410418E0
2.158790000E0,-4.492739137E0,-1.114731684E0,1.332713179E0,4.816996585E0
2.168779000E0,-4.643321897E0,-2.426963601E0,1.852766001E0,5.557277428E0
2.178768000E0,-4.913189026E0,-3.925814449E0,2.298861485E0,6.695984589E0
2.188757000E0,-5.231583366E0,-4.461603591E0,2.692486395E0,7.384094671E0
2.198746000E0,-5.225370700E0,-5.505986180E0,3.544072836E0,8.377400255E0
2.208735000E0,-4.287943332E0,-6.163033710E0,3.794817815E0,8.412495752E0
2.218725000E0,-3.897273898E0,-5.264357010E0,3.839937855E0,7.592583308E0
2.228714000E0,-4.116897656E0,-4.258794085E0,4.235555204E0,7.281902310E0
2.238703000E0,-4.457772202E0,-3.233656436E0,4.124190888E0,6.880204753E0
2.248692000E0,-4.816811709E0,-1.431917917E0,3.850229539E0,6.330586976E0
2.258681000E0,-5.143852912E0,6.301689027E-1,2.803816504E0,5.892174693E0
2.268670000E0,-5.300987477E0,3.782338103E0,6.846615905E-1,6.547924194E0
2.278659000E0,-4.469446753E0,7.447122613E0,-5.873697692E-1,8.705204922E0
2.288648000E0,-3.897773834E0,7.185230502E0,1.595389402E-1,8.175917741E0
2.298638000E0,-3.884275537E0,5.758625073E0,9.190291035E-1,7.006709190E0
2.308627000E0,-3.602350280E0,4.068722154E0,8.067917991E-1,5.493845695E0
2.318616000E0,-2.593310893E0,2.937936428E0,3.494097269E-1,3.934313028E0
2.328605000E0,-3.400859322E0,2.377870525E0,7.484938896E-1,4.216675878E0
2.338594000E0,-3.905463508E0,2.384505945E0,4.840635020E-1,4.601394494E0
2.348583000E0,-2.517515776E0,1.649990409E0,1.270529795E0,3.267200635E0
2.358573000E0,-5.982292181E-1,8.369774652E-1,2.322412900E0,2.540080935E0
2.368562000E0,1.056290737E0,3.114794236E-1,2.004873422E0,2.287419286E0
2.378551000E0,1.533811204E0,4.445535734E-1,2.410576633E0,2.891553976E0
2.388540000E0,1.569402621E0,6.401078537E-1,2.274262249E0,2.836376461E0
2.398529000E0,1.104431448E0,-4.359558275E-1,2.032379894E0,2.353804228E0
2.408518000E0,1.086823143E0,-7.788725138E-1,7.193349946E-1,1.518311487E0
2.418507000E0,1.159038595E0,-8.642135033E-1,-7.591972178E-1,1.632977605E0
2.428497000E0,1.019904683E0,-7.556573135E-1,-1.250818831E0,1.782069383E0
2.438486000E0,8.082372308E-2,4.163194156E-1,-4.673454353E-1,6.310832638E-1
2.448475000E0,-1.570337006E0,1.581472444E0,9.676943099E-1,2.429700739E0
2.458464000E0,-1.969122376E0,3.460987995E0,1.398810689E0,4.220491935E0
2.468453000E0,-2.031061932E0,5.062096558E0,1.613269310E0,5.687940928E0
2.478442000E0,-1.571069078E0,6.039480289E0,1.281063846E0,6.370612591E0
2.488431000E0,-3.116501623E-1,5.239081836E0,-1.095981637E-1,5.249487219E0
2.498421000E0,2.478068705E0,3.200691589E0,-1.050121632E0,4.181866400E0
2.508410000E0,4.122508060E0,3.644552559E0,-1.414551686E0,5.681442821E0
2.518399000E0,5.545664216E0,3.426642035E0,-3.635737005E0,7.464238126E0
2.528388000E0,6.461441098E0,1.847154720E0,-2.946539729E0,7.337867402E0
2.538377000E0,7.231383744E0,2.354937453E0,-4.218629268E0,8.696865767E0
2.548366000E0,8.579456974E0,-8.811216044E-1,-3.709472148E0,9.388484482E0
2.558355000E0,7.155588627E0,-7.414083506E0,3.739476551E0,1.096151302E1
2.568345000E0,2.153712689E0,-9.149626574E0,4.492853158E0,1.041824718E1
2.578334000E0,1.868081467E0,-8.834364586E0,2.917778152E0,9.489423342E0
2.588323000E0,1.552525510E0,-8.058262483E0,3.269865027E0,8.833908931E0
2.598312000E0,9.958642215E-1,-6.667213973E0,3.181679367E0,7.454298847E0
2.608301000E0,2.919596636E0,-2.676326153E0,3.178853115E0,5.078570008E0
2.618290000E0,8.114404817E-1,7.848627523E0,-2.720233480E0,8.346200323E0
2.628279000E0,-3.548661146E0,1.623819851E1,-7.797778966E0,1.835966894E1
2.638268000E0,-4.390265221E0,1.499025300E1,-6.341803558E0,1.685824979E1
2.648258000E0,-2.201659711E0,1.088594849E1,-3.689377607E0,1.170310588E1
2.658247000E0,3.757412007E-1,7.865492063E0,-9.271716437E-1,7.928858310E0
2.668236000E0,1.731515506E0,3.933389225E0,-9.501053005E-2,4.298688607E0
2.678225000E0,2.662946261E0,4.087028325E-2,1.529172316E0,3.071045611E0
2.688214000E0,2.386375592E0,-1.168505822E0,2.349128536E0,3.546632093E0
2.698203000E0,2.817779070E0,-3.983879932E0,2.856673579E0,5.654357801E0
2.708192000E0,2.993837856E0,-5.466007597E0,3.431656022E0,7.114532115E0
2.718182000E0,2.796106658E0,-5.909658653E0,4.434037477E0,7.899554809E0
2.728171000E0,2.332047358E0,-5.931285165E0,5.242904745E0,8.252674642E0
2.738160000E0,1.543380758E0,-5.581088403E0,5.453141969E0,7.954076267E0
2.748149000E0,-1.477740207E0,-4.113161870E0,4.643095610E0,6.376531465E0
2.758138000E0,-5.368916920E0,-2.683566760E0,3.846889025E0,7.129190320E0
2.768127000E0,-6.011075685E0,-4.081891546E0,3.866435097E0,8.230685867E0
2.778116000E0,-2.800858690E0,-7.133877330E0,3.997651294E0,8.643970791E0
2.788106000E0,-1.956961922E0,-6.738612569E0,3.573334057E0,7.874472402E0
2.798095000E0,-2.311448202E0,-4.347197261E0,2.886136822E0,5.707074782E0
2.808084000E0,-1.953118255E0,-2.671451329E0,2.438547082E0,4.110697628E0
2.818073000E0,-1.422389294E0,-1.914153287E0,2.106807933E0,3.182108385E0
2.828062000E0,-1.082689161E0,-1.856798533E0,1.731988546E0,2.760380578E0
2.838051000E0,-9.183072647E-1,-2.193937878E0,9.498702425E-1,2.561035947E0
2.848040000E0,-8.830491391E-1,-2.499888759E0,1.525506404E-1,2.655652705E0
2.858030000E0,-1.151120296E0,-2.418048205E0,-8.593243539E-2,2.679443868E0
2.868019167E0,-1.627192700E0,-2.005361080E0,-1.084833920E-2,2.582507857E0
2.878008167E0,-2.207973534E0,-1.615812557E0,-1.069063979E-1,2.738142861E0
2.887997167E0,-2.659767130E0,-9.639941919E-1,-6.711200237E-1,2.907584578E0
2.897986167E0,-2.473449989E0,-2.179619801E-1,-1.590424531E0,2.948713696E0
2.907975167E0,-2.152925800E0,5.620981032E-1,-2.337486145E0,3.227210135E0
2.917964167E0,-1.936853932E0,1.239746543E0,-2.396586000E0,3.321445333E0
2.927954167E0,-2.078299541E0,1.699871544E0,-2.168408350E0,3.451215296E0
2.937943167E0,-2.111462024E0,2.154214234E0,-1.623447266E0,3.425564460E0
2.947932167E0,-2.093641465E0,2.196218877E0,-9.266807699E-1,3.172609208E0
2.957921167E0,-2.150661173E0,2.306745286E0,-2.876356477E-1,3.166883573E0
2.967910167E0,-2.021952262E0,2.715230602E0,-3.547868264E-1,3.403915667E0
2.977899167E0,-2.060515234E0,3.195913829E0,-7.446230328E-1,3.874796987E0
2.987888167E0,-2.365346958E0,3.749194915E0,-1.035428748E0,4.552300675E0
2.997878167E0,-2.408025785E0,4.262440116E0,-1.153504498E0,5.029667639E0
3.007867167E0,-2.009731582E0,4.743596383E0,-9.207399988E-1,5.233401362E0
3.017856167E0,-1.583162582E0,5.282206805E0,-5.711186028E-1,5.543851455E0
3.027845167E0,-1.233415178E0,5.767947289E0,-4.255729267E-1,5.913682545E0
3.037834167E0,-7.279657772E-1,6.391908349E0,-5.981279151E-1,6.460973883E0
3.047823167E0,-5.393647134E-2,6.517060398E0,-5.991925469E-1,6.544770209E0
3.057812167E0,6.487862912E-1,6.005779862E0,-3.518642418E-1,6.050960572E0
3.067801167E0,1.177586255E0,5.493723400E0,-5.066115350E-2,5.618742985E0
3.077791167E0,1.407033336E0,5.246510139E0,2.555373573E-1,5.437914194E0
3.087780167E0,1.513242454E0,5.005415404E0,6.579611573E-1,5.270388883E0
3.097769167E0,1.474803151E0,4.441635057E0,1.377880873E0,4.878700853E0
3.107758167E0,1.383910815E0,3.899168980E0,1.672230002E0,4.462631629E0
3.117747167E0,7.524834448E-1,3.536453329E0,1.188342501E0,3.805902178E0
3.127736167E0,6.976257446E-1,3.351174946E0,7.717427114E-1,3.508937447E0
3.137725167E0,1.034117510E0,3.520827230E0,1.420171738E-1,3.672300680E0
3.147715167E0,1.349302315E0,3.527272616E0,-4.375480244E-1,3.801804455E0
3.157704167E0,1.670677274E0,3.129214640E0,-5.500218487E-1,3.589661662E0
3.167693167E0,1.984510202E0,2.170731449E0,-4.960599419E-1,2.982688590E0
3.177682167E0,1.523308436E0,5.865529132E-1,-2.840822947E-1,1.656869235E0
3.187671167E0,7.993874699E-2,-9.716838652E-1,4.501823956E-1,1.073882641E0
3.197660167E0,-7.912496075E-1,-2.296821976E0,1.088651275E0,2.662072262E0
3.207649167E0,-1.119963992E0,-3.783677700E0,1.000531104E0,4.070822862E0
3.217639167E0,-1.066422500E0,-4.977455773E0,1.270871564E0,5.246659647E0
3.227628167E0,-5.719848678E-1,-5.491556422E0,2.142204930E0,5.922280015E0
3.237617167E0,-1.265416405E-1,-5.495147781E0,3.502763719E0,6.517822919E0
3.247606167E0,-1.561183190E-1,-5.385437644E0,4.369105901E0,6.936598440E0
3.257595167E0,-2.921795189E-1,-5.152589237E0,4.046416196E0,6.558050682E0
3.267584167E0,-3.095437029E-1,-4.926891391E0,3.197051989E0,5.881429886E0
3.277573167E0,-2.416755094E-1,-4.810064022E0,2.516035553E0,5.433742527E0
3.287562167E0,-9.453792885E-2,-4.740821879E0,2.019374517E0,5.153853214E0
3.297552167E0,9.329466462E-2,-4.741183237E0,1.555183070E0,4.990602845E0
3.307541167E0,2.869773974E-1,-4.982033558E0,1.215986675E0,5.136305870E0
3.317530167E0,3.555083728E-1,-5.308800527E0,1.073371916E0,5.427879559E0
3.327519167E0,2.354929559E-1,-5.331281317E0,9.190369973E-1,5.415038912E0
3.337508167E0,7.229424343E-2,-5.076039829E0,8.381539249E-1,5.145280245E0
3.347497167E0,-9.175143823E-2,-4.571568375E0,8.676645300E-1,4.654083956E0
3.357486167E0,-4.220451553E-1,-3.993522575E0,7.152115381E-1,4.078954795E0
3.367476167E0,-7.425672980E-1,-3.467404144E0,5.104655810E-1,3.582579071E0
3.377465167E0,-8.737922658E-1,-3.084123836E0,5.663952219E-1,3.255170703E0
3.387454167E0,-1.082720005E0,-2.713137884E0,7.313768966E-1,3.011363802E0
3.397443167E0,-1.476874527E0,-2.049121642E0,7.833177133E-1,2.644549964E0
3.407432167E0,-2.055619214E0,-1.375280324E0,2.859208055E-1,2.489722280E0
3.417421167E0,-2.344464212E0,-1.104534359E0,-3.223454507E-1,2.611592461E0
3.427410167E0,-2.253081003E0,-7.466841763E-1,-1.572700743E-1,2.378790688E0
3.437399167E0,-2.153944677E0,1.653130656E-1,2.177326231E-1,2.171223981E0
3.447389167E0,-2.413810874E0,1.523610737E0,4.486720598E-1,2.889494633E0
3.457378167E0,-2.694694596E0,2.810938413E0,-7.548536137E-2,3.894669660E0
3.467367167E0,-2.682582089E0,3.340898464E0,-6.438673210E-1,4.332714431E0
3.477356167E0,-2.513998675E0,3.235357391E0,-6.922039139E-1,4.155342711E0
3.487345167E0,-2.248601743E0,3.043800268E0,-1.853098123E-1,3.788834860E0
3.497334167E0,-2.200814642E0,3.446948830E0,5.752739266E-2,4.090030651E0
3.507323167E0,-2.155894285E0,4.314718902E0,-1.680538018E-1,4.826274076E0
3.517312167E0,-2.003263099E0,5.497749208E0,-2.417297423E-1,5.856342089E0
3.527302167E0,-1.813292325E0,6.015777431E0,-6.852830033E-1,6.320381314E0
3.537291167E0,-1.708856668E0,5.806252983E0,-7.623762028E-1,6.100326409E0
3.547280167E0,-1.588454897E0,5.534467968E0,-6.378622305E-1,5.793133251E0
3.557269167E0,-7.984674105E-1,4.981975670E0,-1.666104166E-1,5.048305737E0
3.567258167E0,3.863566746E-1,4.567482340E0,5.177208062E-1,4.612938461E0
3.577247167E0,1.347606768E0,4.118568206E0,1.020677247E0,4.452014163E0
3.587236167E0,1.670050306E0,3.616320448E0,1.281136790E0,4.184274499E0
3.597226167E0,1.680194933E0,2.963376494E0,1.329198418E0,3.656695734E0
3.607215167E0,1.690090030E0,2.383739668E0,1.103674964E0,3.123574481E0
3.617204167E0,1.627305259E0,2.417223748E0,5.253118077E-1,2.960919713E0
3.627193167E0,1.540359647E0,2.661166077E0,1.767543125E-1,3.079895261E0
3.637182167E0,1.457845933E0,3.097631489E0,1.507505751E-1,3.426858816E0
3.647171167E0,1.356239159E0,3.475998967E0,-1.496641624E-1,3.734213817E0
3.657160167E0,1.359577042E0,3.417342038E0,-2.783493921E-2,3.677968342E0
3.667149167E0,1.429192237E0,2.951928231E0,-2.453345507E-3,3.279706808E0
3.677139167E0,1.553219575E0,2.035312273E0,7.433565259E-2,2.561349817E0
3.687128167E0,1.361216016E0,8.468586749E-1,9.555636764E-2,1.605991805E0
3.697117167E0,1.072360347E0,-3.329135621E-1,1.477940767E-1,1.132533109E0
3.707106167E0,9.157537857E-1,-1.288806437E0,2.428067994E-1,1.599556866E0
3.717095167E0,8.321330470E-1,-2.103372694E0,2.999340963E-1,2.281793715E0
3.727084167E0,7.771654192E-1,-2.786411097E0,2.353293800E-1,2.902318523E0
3.737073167E0,5.371901339E-1,-3.227096445E0,3.698714733E-2,3.271710983E0
3.747063167E0,3.584933764E-1,-3.696365322E0,1.808558419E-2,3.713752978E0
3.757052167E0,2.268785454E-1,-4.090818490E0,5.459435619E-2,4.097468772E0
3.767041167E0,-2.462277129E-2,-4.415835972E0,-9.092201069E-2,4.416840548E0
3.777030167E0,-2.226894540E-1,-4.751217059E0,-2.439306343E-1,4.762683727E0
3.787019167E0,-2.610607834E-1,-5.164347403E0,-1.441174936E-1,5.172949515E0
3.797008167E0,-2.282273519E-1,-5.432653325E0,-2.998934582E-2,5.437527861E0
3.806997167E0,-1.076057249E-1,-5.597983348E0,-3.586716434E-1,5.610493909E0
3.816986167E0,4.541751668E-2,-5.635621875E0,-5.197471587E-1,5.659720291E0
3.826976167E0,1.832739580E-1,-5.365088164E0,-7.008776736E-1,5.413777781E0
3.836965167E0,3.023837873E-1,-5.508763608E0,-7.754286499E-1,5.571283697E0
3.846954167E0,3.267861186E-1,-5.458195133E0,-4.469367523E-1,5.486204128E0
3.856943167E0,4.007813171E-1,-5.481982775E0,-1.810274577E-1,5.499593781E0
3.866932292E0,3.954246828E-1,-5.407342483E0,1.380388744E-1,5.423538341E0
3.876921292E0,2.609290749E-1,-5.279477325E0,3.210098735E-1,5.295659746E0
3.886910292E0,1.113745478E-1,-5.077724996E0,3.356116135E-1,5.090022650E0
3.896899292E0,2.860574841E-2,-4.864615620E0,1.973460133E-1,4.868700943E0
3.906889292E0,-1.043710452E-1,-4.249682077E0,3.950611322E-1,4.269281481E0
3.916878292E0,-6.886207402E-1,-2.999094211E0,7.329017043E-1,3.163211899E0
3.926867292E0,-1.033705574E0,-1.976554188E0,4.762313028E-1,2.280813435E0
3.936856292E0,-1.161999040E0,-1.107057433E0,3.139026560E-2,1.605242436E0
3.946845292E0,-1.161286557E0,-2.995838481E-1,-5.357195592E-1,1.313519088E0
3.956834292E0,-1.178957720E0,7.312188756E-1,-1.160078230E0,1.808425793E0
3.966823292E0,-1.275799305E0,2.203268280E0,-2.049659586E0,3.268510272E0
3.976813292E0,-1.277309641E0,3.059290127E0,-2.231284483E0,3.996173975E0
3.986802292E0,-1.477696353E0,3.222679458E0,-1.960592166E0,4.051317199E0
3.996791292E0,-2.038860363E0,2.770729449E0,-2.170363659E0,4.067477311E0
4.006780292E0,-1.877095388E0,2.086588261E0,-2.923596132E0,4.052746231E0
4.016769292E0,-2.693190400E0,1.333133009E0,-3.668725533E0,4.742369154E0
4.026758292E0,-4.124806893E0,1.517419705E0,-3.358901457E0,5.531619424E0
4.036747292E0,-4.487092481E0,3.024886279E0,-2.447061943E0,5.939027537E0
4.046736292E0,-4.500837238E0,4.753762937E0,-1.588709689E0,6.736452804E0
4.056726292E0,-3.833683966E0,6.147723361E0,-6.435116641E-1,7.273633379E0
4.066715292E0,-2.609099545E0,6.982533263E0,-1.453488442E-1,7.455487743E0
4.076704292E0,-1.296941083E0,6.952983189E0,3.698293734E-1,7.082570520E0
4.086693292E0,-7.633320764E-1,6.509676535E0,1.212871717E0,6.665554909E0
4.096682292E0,-8.130059275E-1,6.199509811E0,2.346270125E0,6.678314460E0
4.106671292E0,-6.611192384E-1,5.463421374E0,3.172468833E0,6.352213020E0
4.116660292E0,-9.923397392E-2,4.570922257E0,3.490190159E0,5.751921854E0
4.126649292E0,3.228282845E-1,3.957811875E0,3.291948498E0,5.158043995E0
4.136639292E0,7.486807081E-1,3.831404428E0,3.011051767E0,4.930173977E0
4.146628292E0,1.466767030E0,3.957634120E0,2.663137758E0,4.990648862E0
4.156617292E0,3.360157439E0,4.515880662E0,1.869585371E0,5.931204399E0
4.166606292E0,2.359912556E0,3.914900914E0,5.242157471E-1,4.601134489E0
4.176595292E0,8.769464001E-1,2.954676422E0,2.948296233E-1,3.096138281E0
4.186584292E0,4.339043319E-2,2.293545781E0,9.248823126E-1,2.473386802E0
4.196573292E0,8.064801425E-2,2.158501412E0,1.634113172E0,2.708497426E0
4.206562292E0,3.559261563E-1,2.036451895E0,1.857783497E0,2.779420672E0
4.216552292E0,3.484674481E-1,1.324307806E0,1.497417842E0,2.029157688E0
4.226541292E0,5.962598759E-1,1.683933789E-1,1.033709082E0,1.205170791E0
4.236530292E0,8.071993500E-1,-8.352414268E-1,6.629633041E-1,1.337430138E0
4.246519292E0,5.990109909E-1,-1.750515448E0,1.260681622E0,2.238847171E0
4.256508292E0,3.601767898E-1,-2.663441228E0,1.172051135E0,2.932123865E0
4.266497292E0,2.011024109E-1,-3.304637541E0,6.204891296E-1,3.368394012E0
4.276486292E0,2.963713878E-1,-3.922221628E0,-5.086829111E-2,3.933731826E0
4.286475292E0,2.146486554E-1,-4.331667641E0,-3.643142796E-1,4.352257287E0
4.296465292E0,5.030593514E-2,-4.509070410E0,-2.101196945E-1,4.514243783E0
4.306454292E0,-7.500705913E-2,-4.542792472E0,1.215238523E-1,4.545036584E0
4.316443292E0,-7.536900178E-2,-4.338740433E0,3.804420698E-1,4.356040083E0
4.326432292E0,-1.138028964E-2,-4.338856793E0,6.074660647E-1,4.381189656E0
4.336421292E0,6.950263649E-2,-4.513210239E0,6.771214597E-1,4.564251390E0
4.346410292E0,3.411645681E-2,-4.714562618E0,4.002606225E-1,4.731645927E0
4.356399292E0,7.490955681E-2,-4.898817739E0,-2.330561288E-1,4.904930360E0
4.366388292E0,4.213005124E-1,-5.029250409E0,-7.836931045E-1,5.107350456E0
4.376378292E0,7.773091145E-1,-5.119602170E0,-8.687465572E-1,5.250643429E0
4.386367292E0,1.038636677E0,-5.206365495E0,-5.896893597E-1,5.341604754E0
4.396356292E0,1.461946439E0,-5.280892936E0,-6.346714050E-3,5.479521683E0
4.406345292E0,8.904892825E-1,-5.583176444E0,5.386055987E-1,5.679342070E0
4.416334292E0,-3.370750254E-1,-5.549622781E0,1.283344406E0,5.706041137E0
4.426323292E0,-1.129135203E0,-5.692268531E0,2.199158857E0,6.205897760E0
4.436312292E0,-1.184818384E0,-4.599582385E0,3.963034608E0,6.185919174E0
4.446301292E0,-8.117457063E-1,-2.966760278E0,4.061283034E0,5.094567452E0
4.456291292E0,-1.132904903E0,-1.842985656E0,2.277051078E0,3.140864731E0
4.466280292E0,-1.377736301E0,-1.328347648E0,7.318492055E-1,2.048967557E0
4.476269292E0,-1.708587550E0,-6.554056317E-1,-7.417766082E-1,1.974603883E0
4.486258292E0,-2.029945698E0,4.225741822E-1,-1.915869445E0,2.823084166E0
4.496247292E0,-2.218967908E0,1.826698236E0,-2.968171796E0,4.131669013E0
4.506236292E0,-2.172945204E0,2.989857949E0,-3.173427776E0,4.871507494E0
4.516225292E0,-1.930501663E0,3.634336304E0,-2.612638865E0,4.874537812E0
4.526214292E0,-1.806596678E0,3.715579273E0,-1.679714438E0,4.459905995E0
4.536204292E0,-1.902409447E0,3.158947147E0,-8.084465611E-1,3.775141669E0
4.546193292E0,-2.367890497E0,2.694166008E0,-1.718847513E-1,3.590958124E0
4.556182292E0,-3.155577396E0,3.282037468E0,-3.498200552E-1,4.566378512E0
4.566171292E0,-3.715902039E0,4.752487074E0,1.085991669E-1,6.033726471E0
4.576160292E0,-3.551918922E0,6.443460326E0,1.021475830E0,7.428170829E0
4.586149292E0,-2.925784452E0,7.240599541E0,9.689516075E-1,7.869267030E0
4.596138292E0,-2.012095903E0,6.893028179E0,4.732328506E-1,7.196271029E0
4.606127292E0,-1.004779106E0,6.195256546E0,-2.946645856E-2,6.276277001E0
4.616117292E0,1.938550794E-1,5.239385306E0,-5.193051092E-1,5.268625625E0
4.626106292E0,1.349019017E0,4.703291525E0,-5.967082112E-1,4.929184940E0
4.636095292E0,1.964446943E0,4.760504192E0,-2.197091281E-1,5.154582820E0
4.646084292E0,2.454320531E0,4.814068195E0,5.699763492E-2,5.403905124E0
4.656073292E0,2.887834561E0,4.666583875E0,-1.160189912E-2,5.487871000E0
4.666062292E0,2.919128567E0,4.618770608E0,-7.670976833E-2,5.464452205E0
4.676051292E0,2.653916699E0,4.010337998E0,-1.450052471E-1,4.811144482E0
4.686040292E0,1.326297906E0,4.572095209E0,-2.764867616E-1,4.768602066E0
4.696030292E0,1.323022588E0,4.242192963E0,1.487663224E-1,4.446203023E0
4.706019292E0,1.246993875E0,3.237893913E0,3.793429394E-1,3.490394216E0
4.716008292E0,8.343231216E-1,2.961845108E0,3.614864199E-1,3.098272736E0
4.725997292E0,1.178097887E0,1.321868348E0,5.359907238E-1,1.850009896E0
4.735986292E0,7.959852675E-1,2.703933781E-1,2.717410152E-1,8.834864483E-1
4.745975292E0,7.342448097E-1,-7.528202444E-1,-1.268399946E-1,1.059217704E0
4.755964292E0,3.869541138E-1,-1.636253838E0,-3.245483892E-1,1.712422776E0
4.765953292E0,1.015105873E-1,-2.278428390E0,-4.767666885E-1,2.329988584E0
4.775943292E0,5.565321386E-2,-3.098289886E0,-4.713686121E-1,3.134435494E0
4.785932292E0,3.600189149E-2,-3.754439283E0,-3.888221531E-1,3.774691131E0
4.795921292E0,-2.649592683E-1,-4.206478754E0,-2.357807851E-1,4.221404920E0
4.805910292E0,-5.147514439E-1,-4.673857811E0,-2.684876244E-1,4.709777223E0
4.815899292E0,-5.627468517E-1,-4.848594249E0,-4.341555429E-1,4.900412355E0
4.825888292E0,-3.652928111E-1,-5.058662488E0,-5.918245436E-1,5.106247282E0
4.835877292E0,-1.321324557E-2,-5.297779695E0,-6.213940593E-1,5.334114253E0
4.845866292E0,4.787685558E-1,-5.586797624E0,-4.921693508E-1,5.628832711E0
4.855856292E0,9.145632926E-1,-5.779601374E0,-2.653524935E-1,5.857527636E0
4.865845375E0,1.077916079E0,-5.825718364E0,7.429479517E-2,5.925066856E0
4.875834375E0,1.061950549E0,-5.853970356E0,4.837962842E-1,5.969151258E0
4.885823375E0,1.087248820E0,-5.924971926E0,8.546699703E-1,6.084230689E0
4.895812375E0,1.130140486E0,-6.159915390E0,1.138837488E0,6.365432111E0
4.905801375E0,1.217110802E0,-6.406593046E0,1.214039844E0,6.633225905E0
4.915790375E0,1.249999928E0,-6.506073480E0,1.106309720E0,6.716800812E0
4.925779375E0,1.146755057E0,-6.395855804E0,9.638293004E-1,6.568940976E0
4.935769375E0,8.893062446E-1,-6.023788117E0,7.862025833E-1,6.139625670E0
4.945758375E0,7.897483349E-1,-5.488757944E0,4.294510925E-1,5.561887669E0
4.955747375E0,1.356425393E0,-5.266971300E0,-1.766467237E-1,5.441698318E0
4.965736375E0,1.191434509E0,-5.205800654E0,-5.351535487E-1,5.367146910E0
4.975725375E0,7.037176663E-1,-4.075004110E0,-8.915764260E-1,4.230341071E0
4.985714375E0,4.074234617E-1,-2.168382622E0,-1.181652190E0,2.502834188E0
4.995703375E0,3.206311932E-1,-3.242631912E-1,-1.529839776E0,1.596358581E0
5.005692375E0,-5.552252859E-1,1.213706553E0,-1.854115831E0,2.284535889E0
5.015682375E0,-1.633385486E0,3.018620403E0,-2.718024402E0,4.378090215E0
5.025671375E0,-1.927063647E0,4.220806772E0,-3.766265277E0,5.976080508E0
5.035660375E0,-2.439156069E0,4.106798345E0,-4.081845353E0,6.283051525E0
5.045649375E0,-2.760894140E0,3.783448489E0,-3.561312182E0,5.883873162E0
5.055638375E0,-2.520425935E0,3.759462626E0,-2.758295345E0,5.300405583E0
5.065627375E0,-3.201467806E0,4.300241196E0,-2.154819421E0,5.777950951E0
5.075616375E0,-4.019092157E0,5.341585280E0,-1.426878494E0,6.835321303E0
5.085605375E0,-4.595306901E0,6.429597747E0,-1.870114982E-1,7.905159454E0
5.095595375E0,-3.860512453E0,7.350464630E0,1.072426713E0,8.371558142E0
5.105584375E0,-2.732162969E0,6.708999930E0,2.711219412E0,7.734733690E0
5.115573375E0,-1.448759067E0,5.320081560E0,4.171966733E0,6.914295124E0
5.125562375E0,-2.777632087E-1,4.578743493E0,5.743583695E0,7.350564471E0
5.135551375E0,-4.995539457E-2,4.915106328E0,6.270001504E0,7.967037380E0
5.145540375E0,-3.105935705E-1,5.074897283E0,4.481687315E0,6.777652395E0
5.155529375E0,-1.163285720E0,5.058889360E0,1.991944059E0,5.559985284E0
5.165518375E0,-1.600092025E0,4.801674437E0,7.815774357E-1,5.121253282E0
5.175508375E0,-1.464793010E0,3.938567519E0,6.268115777E-1,4.248626298E0
5.185497375E0,-7.582590321E-1,3.113887333E0,8.677069223E-1,3.320266011E0
5.195486375E0,-3.058807147E-1,3.358570504E0,1.170878037E0,3.569945969E0
5.205475375E0,3.241228580E-2,4.694338853E0,7.548334408E-1,4.754749347E0
5.215464375E0,-2.404696673E-2,4.978058036E0,8.990860051E-1,5.058655524E0
5.225453375E0,3.032594079E-1,3.478912634E0,1.633482842E0,3.855264658E0
5.235442375E0,1.432214078E-1,1.900649142E0,2.523758848E0,3.162647349E0
5.245431375E0,-2.632685459E-1,1.504192134E0,3.237845966E0,3.579881395E0
5.255421375E0,-2.890296239E-1,8.753755456E-1,3.661102518E0,3.775379732E0
5.265410375E0,-3.086900094E-1,3.081541121E-2,3.641047153E0,3.654239112E0
5.275399375E0,-4.416840523E-2,-9.891471595E-1,3.503930531E0,3.641138849E0
5.285388375E0,-5.164874822E-2,-1.656701551E0,3.014016305E0,3.439712475E0
5.295377375E0,-1.210335633E-1,-1.976485775E0,2.437625268E0,3.140567161E0
5.305366375E0,1.895301864E-1,-2.869558504E0,2.012110521E0,3.509825700E0
5.315355375E0,5.846704021E-1,-3.589238484E0,1.659071428E0,3.997122762E0
5.325344375E0,6.994380891E-1,-4.113263027E0,1.240089775E0,4.352696753E0
5.335334375E0,4.908563586E-1,-4.134650972E0,1.054641237E0,4.295177152E0
5.345323375E0,6.317581759E-1,-4.347038217E0,8.304011017E-1,4.470506196E0
5.355312375E0,6.308882564E-1,-4.708001457E0,5.924878371E-1,4.786892473E0
5.365301375E0,7.066168620E-1,-5.224046305E0,4.923659635E-1,5.294562440E0
5.375290375E0,9.181391573E-1,-6.191365809E0,4.323051184E-1,6.273984205E0
5.385279375E0,7.832674272E-1,-6.749124693E0,3.596470320E-1,6.803935477E0
5.395268375E0,7.270145814E-1,-6.407195309E0,-2.867006779E-2,6.448373741E0
5.405257375E0,7.976862225E-1,-6.812103884E0,-3.833664962E0,7.857356405E0
5.415247375E0,3.314868414E-1,-6.522672556E0,-5.237512443E0,8.371778628E0
5.425236375E0,5.519697024E-1,-5.466642020E0,-1.303567733E0,5.646957974E0
5.435225375E0,1.449278592E0,-5.384911394E0,1.968009067E-1,5.580000874E0
5.445214375E0,1.382046868E0,-5.731000487E0,4.417969036E-1,5.911819063E0
5.455203375E0,7.477834529E-1,-5.742099087E0,6.272015870E-1,5.824453953E0
5.465192375E0,1.952417466E-1,-5.212025015E0,5.038294297E-1,5.239958796E0
5.475181375E0,-2.500664100E-1,-4.575109448E0,3.793615043E-1,4.597616211E0
5.485170375E0,-7.241921304E-1,-3.890038553E0,1.928616375E-1,3.961571632E0
5.495160375E0,-7.811051269E-1,-2.892508240E0,-1.442747929E-1,2.999590698E0
5.505149375E0,-6.269577581E-1,-1.978745139E0,-2.499433261E-1,2.090688887E0
5.515138375E0,-7.994434570E-1,-1.061586560E0,-4.781946516E-1,1.412354768E0
5.525127375E0,-1.193710099E0,1.289539093E-1,-9.482137263E-1,1.529928816E0
5.535116375E0,-1.776767546E0,1.557201236E0,-9.364152145E-1,2.541387821E0
5.545105375E0,-2.457911306E0,2.994871352E0,-7.786421335E-1,3.951818059E0
5.555094375E0,-2.992351786E0,4.146795639E0,-7.362264311E-1,5.166441004E0
5.565083375E0,-3.222003520E0,5.034708785E0,-4.335277347E-1,5.993124855E0
5.575072375E0,-3.003161534E0,5.411755376E0,3.336403710E-1,6.198176454E0
5.585062375E0,-2.737651166E0,5.545840217E0,8.947824544E-1,6.249137002E0
5.595051375E0,-2.907047050E0,6.311044865E0,1.054011565E0,7.027883765E0
5.605040375E0,-3.379271402E0,7.230616005E0,9.537685812E-1,8.038094148E0
5.615029375E0,-3.943429187E0,7.896624393E0,3.903986355E-1,8.835141292E0
5.625018375E0,-4.037347457E0,7.122592789E0,-5.952757895E-2,8.187493271E0
5.635007375E0,-3.576848234E0,4.838585570E0,5.879901588E-1,6.045782500E0
5.644996375E0,-2.609888627E0,3.167758316E0,2.882649835E0,5.015563922E0
5.654985375E0,-1.404175364E0,2.284003125E0,4.149715154E0,4.940497403E0
5.664975375E0,-7.955189520E-1,2.270718251E0,2.849534714E0,3.729458388E0
5.674964375E0,-4.359091960E-1,2.359428699E0,1.287207223E0,2.722833643E0
5.684953375E0,5.824382275E-2,2.133596951E0,6.892170831E-1,2.242910716E0
5.694942375E0,4.066387653E-1,2.100610469E0,5.081054986E-1,2.199111326E0
5.704931375E0,6.495642632E-1,2.305068305E0,4.332156030E-1,2.433711030E0
5.714920375E0,8.771044211E-1,2.548951576E0,2.893091939E-1,2.711118978E0
5.724909375E0,1.141319777E0,2.847280027E0,-1.933329231E-1,3.073595941E0
5.734898375E0,1.991897866E0,2.556539508E0,-1.394749213E0,3.528296577E0
5.744888375E0,1.940959555E0,3.333995242E0,-1.554380540E0,4.159200299E0
5.754877375E0,1.682012540E0,3.055816880E0,-6.361565246E-1,3.545684435E0
5.764866375E0,1.801490305E0,2.010117205E0,-1.327277023E-1,2.702509046E0
5.774855375E0,2.194304498E0,1.651308664E0,3.022937402E-3,2.746234089E0
5.784844375E0,2.978933888E0,8.377054435E-1,1.706837332E-1,3.099182224E0
5.794833375E0,3.547055501E0,-8.114660633E-1,3.289170633E-1,3.653527930E0
5.804822375E0,3.593982915E0,-2.788282206E0,4.122029757E-1,4.567399933E0
5.814811375E0,3.337601512E0,-4.325705236E0,3.859214225E-1,5.477247939E0
5.824800375E0,2.870261631E0,-5.264358764E0,3.065361144E-1,6.003818737E0
5.834790375E0,2.092154518E0,-5.603095568E0,3.349379412E-1,5.990323355E0
5.844779375E0,1.046636691E0,-5.345415791E0,2.633152505E-1,5.453279130E0
5.854768375E0,5.971415264E-1,-5.485532620E0,1.223448745E-1,5.519294737E0
5.864757417E0,4.948389702E-1,-5.822604722E0,7.705460787E-3,5.843599124E0
5.874746417E0,4.348857140E-1,-6.048087975E0,-1.251280761E-1,6.064993881E0
5.884735417E0,3.147236782E-1,-6.264953603E0,-3.131746046E-1,6.280666602E0
5.894724417E0,2.139712554E-1,-6.408085256E0,-5.635949904E-1,6.436379390E0
5.904713417E0,1.816634155E-1,-6.540031770E0,-8.320991331E-1,6.595256334E0
5.914703417E0,1.056733663E-1,-6.654479322E0,-1.026678683E0,6.734042695E0
5.924692417E0,1.113265275E-1,-6.650232489E0,-1.204916434E0,6.759423745E0
5.934681417E0,4.942359030E-2,-6.255117416E0,-1.386601703E0,6.407152321E0
5.944670417E0,-1.185311012E-1,-6.123590147E0,-1.521233844E0,6.310828656E0
5.954659417E0,-1.419208409E-1,-6.178668580E0,-1.687229279E0,6.406467793E0
5.964648417E0,-2.458868203E-1,-6.179255641E0,-1.703045413E0,6.414360785E0
5.974637417E0,-4.140619518E-1,-6.013080695E0,-1.619910870E0,6.241209656E0
5.984626417E0,-5.370104051E-1,-5.676490404E0,-1.666350042E0,5.940340558E0
5.994615417E0,-6.487194137E-1,-5.009000916E0,-1.843865662E0,5.376873407E0
6.004605417E0,-7.784532684E-1,-4.015841398E0,-2.048914066E0,4.575043221E0
6.014594417E0,-9.222400289E-1,-2.802529532E0,-2.173111265E0,3.664302255E0
6.024583417E0,-9.857164519E-1,-1.314199725E0,-2.171548305E0,2.722935893E0
6.034572417E0,-1.060582666E0,7.956329727E-1,-2.142785851E0,2.519801306E0
6.044561417E0,-1.119470267E0,3.317802547E0,-2.217584603E0,4.144720605E0
6.054550417E0,-1.194173637E0,5.347126687E0,-2.254606249E0,5.924615077E0
6.064539417E0,-1.308420922E0,6.729867473E0,-1.735326136E0,7.072088681E0
6.074528417E0,-1.654050716E0,7.332756922E0,-1.260182562E0,7.621893986E0
6.084518417E0,-2.031920595E0,7.404006414E0,-7.352663183E-1,7.712887193E0
6.094507417E0,-2.527450195E0,6.749624045E0,-3.014666516E-1,7.213619853E0
6.104496417E0,-2.911027542E0,5.364909824E0,-3.443004298E-1,6.113499943E0
6.114485417E0,-3.181862385E0,4.175369228E0,-7.568630093E-1,5.303847475E0
6.124474417E0,-3.515557427E0,3.191878080E0,-1.154281300E0,4.886675253E0
6.134463417E0,-3.901822739E0,2.391086694E0,-1.485358837E0,4.811216804E0
6.144452417E0,-4.197062983E0,2.379203398E0,-1.672605393E0,5.106227109E0
6.154441417E0,-4.497561920E0,3.141503148E0,-1.664612249E0,5.733065428E0
6.164431417E0,-4.784510228E0,4.312698689E0,-1.776480010E0,6.681825299E0
6.174420417E0,-4.641043237E0,5.424753737E0,-2.045779374E0,7.426469463E0
6.184409417E0,-3.712486973E0,5.110170026E0,-1.821935095E0,6.573875927E0
6.194398417E0,-1.947643945E0,2.945144876E0,-1.293035728E0,3.760204339E0
6.204387417E0,-8.569486302E-1,1.947654909E0,-1.182047389E0,2.434123380E0
6.214376417E0,-4.566571636E-1,2.274031284E0,-1.099694619E0,2.566920782E0
6.224365417E0,-1.977120490E-1,2.445563448E0,-1.044779323E0,2.666727295E0
6.234354417E0,-4.310677014E-2,2.738688462E0,-1.054745902E0,2.935091413E0
6.244343417E0,6.775051832E-2,3.590485110E0,-8.054983950E-1,3.680353397E0
6.254333417E0,4.593900061E-1,4.619866961E0,-3.419977963E-1,4.655230650E0
6.264322417E0,7.934312037E-1,4.968787276E0,3.730394948E-1,5.045546405E0
6.274311417E0,1.028358003E0,4.790713831E0,1.106330624E0,5.023188892E0
6.284300417E0,1.127966564E0,4.536959290E0,1.955049298E0,5.067398339E0
6.294289417E0,1.066060703E0,4.089613963E0,2.935080063E0,5.145495386E0
6.304278417E0,7.408211001E-1,3.620707614E0,4.123518459E0,5.537304760E0
6.314267417E0,3.190006240E-1,2.622821791E0,4.974958427E0,5.633042419E0
6.324256417E0,-9.745912470E-2,1.743248529E0,5.395223544E0,5.670701085E0
6.334245417E0,-4.075306119E-1,5.061221230E-1,5.401530350E0,5.440475249E0
6.344235417E0,-8.330956449E-1,-8.228295422E-1,4.850505120E0,4.989839348E0
6.354224417E0,-1.168502898E0,-1.983134644E0,3.976001394E0,4.594214745E0
6.364213417E0,-1.292786636E0,-3.037038547E0,3.047071785E0,4.492165056E0
6.374202417E0,-1.210206117E0,-3.849239021E0,2.475104166E0,4.733643472E0
6.384191417E0,-9.399263214E-1,-4.437723269E0,2.098104937E0,4.997888918E0
6.394180417E0,-6.124123340E-1,-4.843612422E0,1.811891917E0,5.207550526E0
6.404169417E0,-1.866998051E-1,-5.269670960E0,1.598741026E0,5.510014674E0
6.414158417E0,2.161600510E-1,-5.577830919E0,1.400028080E0,5.754911081E0
6.424147417E0,5.705689279E-1,-5.873957309E0,1.210747862E0,6.024519379E0
6.434137417E0,8.074455178E-1,-6.105429280E0,1.091554710E0,6.254576456E0
6.444126417E0,9.228228501E-1,-6.338320956E0,9.862463558E-1,6.480632410E0
6.454115417E0,8.930719976E-1,-6.589658843E0,7.760284281E-1,6.695028109E0
6.464104417E0,8.193262560E-1,-6.714617935E0,5.832527447E-1,6.789519371E0
6.474093417E0,6.869364497E-1,-6.770393940E0,4.217672664E-1,6.818211160E0
6.484082417E0,4.241465715E-1,-6.725952762E0,2.111903197E-1,6.742621317E0
6.494071417E0,1.710790415E-1,-6.706019604E0,2.733280957E-2,6.708257155E0
6.504060417E0,7.066160945E-2,-6.820909790E0,-1.103855095E-1,6.822168892E0
6.514050417E0,-1.786689833E-3,-6.730438746E0,-2.244366203E-1,6.734180032E0
6.524039417E0,-7.373313356E-2,-6.328337420E0,-3.758514208E-1,6.339917615E0
6.534028417E0,-9.365879998E-2,-5.635169885E0,-4.935775796E-1,5.657519813E0
6.544017417E0,-1.593322046E-1,-4.667973173E0,-5.829083802E-1,4.706924949E0
6.554006417E0,-2.870826107E-1,-3.438185608E0,-6.338288212E-1,3.507887637E0
6.563995417E0,-4.803750052E-1,-1.911920820E0,-6.804381466E-1,2.085472953E0
6.573984417E0,-6.659654108E-1,-1.283574933E-1,-6.815929717E-1,9.615375986E-1
6.583973417E0,-8.501770429E-1,1.734401107E0,-6.442900747E-1,2.036187099E0
6.593962417E0,-1.048122396E0,3.484079819E0,-6.048261930E-1,3.688249919E0
6.603952417E0,-1.257243167E0,5.028358709E0,-5.355418038E-1,5.210744352E0
6.613941417E0,-1.568518815E0,6.432966328E0,-4.279764247E-1,6.635244597E0
6.623930417E0,-2.184463781E0,7.619871583E0,-4.000086075E-1,7.936896864E0
6.633919417E0,-2.814701388E0,7.727429945E0,-5.412806998E-1,8.241887057E0
6.643908417E0,-3.181249304E0,7.194099559E0,-5.965134989E-1,7.888678213E0
6.653897417E0,-3.388194253E0,5.909363369E0,-8.011096211E-1,6.858732561E0
6.663886417E0,-3.622276422E0,5.255287394E0,-1.091559387E0,6.475371338E0
6.673875417E0,-3.924878603E0,6.052227804E0,-1.431025924E0,7.354044373E0
6.683864417E0,-4.297714322E0,6.501616148E0,-2.162170540E0,8.088036991E0
6.693854417E0,-4.298806289E0,6.750843190E0,-2.855349770E0,8.497449123E0
6.703843417E0,-3.413400430E0,6.085677386E0,-3.365187213E0,7.746693277E0
6.713832417E0,-2.291152224E0,5.226127329E0,-3.504187809E0,6.696351064E0
6.723821417E0,-1.581867131E0,4.856409638E0,-3.235110639E0,6.045904319E0
6.733810417E0,-7.789453116E-1,3.361150880E0,-2.853824231E0,4.477544392E0
6.743799417E0,-8.967103545E-2,2.355321615E0,-2.476872949E0,3.419134453E0
6.753788417E0,6.157854831E-1,2.076922229E0,-2.058186434E0,2.988131373E0
6.763777417E0,1.284672455E0,2.150356241E0,-1.633964068E0,2.990694544E0
6.773766417E0,1.856079618E0,2.612760487E0,-7.665420516E-1,3.295320261E0
6.783756417E0,2.398948860E0,3.109974377E0,3.653865127E-1,3.944667738E0
6.793745417E0,3.066016763E0,3.626434962E0,2.643694012E0,5.435127170E0
6.803734417E0,3.719180280E0,4.366808238E0,5.699394532E0,8.086062959E0
6.813723417E0,4.107082520E0,4.621647438E0,8.069134796E0,1.016556384E1
6.823712417E0,4.161186514E0,4.063653495E0,9.229477320E0,1.090926233E1
6.833701417E0,3.584106675E0,2.842579451E0,8.118736727E0,9.318796308E0
6.843690417E0,2.664598977E0,1.519729940E0,5.915025812E0,6.663122178E0
6.853679417E0,2.166393399E0,3.482549018E-1,3.613048346E0,4.227133803E0
6.863668625E0,1.924645969E0,-8.033887196E-1,1.697712752E0,2.689223704E0
6.873658625E0,1.761421967E0,-1.717044232E0,5.113068126E-1,2.512425700E0
6.883647625E0,1.825421497E0,-2.636733486E0,-7.869771201E-2,3.207915281E0
6.893636625E0,1.815732807E0,-3.541327568E0,-4.998977985E-1,4.010958038E0
6.903625625E0,1.807238118E0,-4.445738048E0,-6.854825395E-1,4.847739960E0
6.913614625E0,1.777676496E0,-5.078543606E0,-7.770177039E-1,5.436496611E0
6.923603625E0,1.636897909E0,-5.485019819E0,-8.414079005E-1,5.785572092E0
6.933592625E0,1.415657395E0,-5.861700960E0,-8.716176132E-1,6.092892685E0
6.943581625E0,1.121705585E0,-6.273288808E0,-9.338226322E-1,6.440838501E0
6.953570625E0,8.578321445E-1,-6.581157576E0,-9.762459359E-1,6.708246206E0
6.963559625E0,6.004829178E-1,-6.851153929E0,-1.073954664E0,6.960766374E0
6.973549625E0,4.873102050E-1,-7.007238919E0,-1.192848950E0,7.124728564E0
6.983538625E0,4.892277263E-1,-7.034139034E0,-1.357257305E0,7.180571225E0
6.993527625E0,5.791761025E-1,-7.092283747E0,-1.528187206E0,7.278137800E0
7.003516625E0,6.446420040E-1,-7.139978900E0,-1.802997133E0,7.392270332E0
7.013505625E0,4.995862881E-1,-7.192871643E0,-2.224139332E0,7.545447946E0
7.023494625E0,1.234980551E-1,-7.264263808E0,-2.618769670E0,7.722870905E0
7.033483625E0,-1.987068066E-1,-7.108655366E0,-2.866758272E0,7.667513840E0
7.043472625E0,-5.038404664E-1,-6.912598810E0,-2.961489598E0,7.537127978E0
7.053461625E0,-7.110949521E-1,-6.440211028E0,-3.344188108E0,7.291472294E0
7.063451625E0,-9.922392402E-1,-5.644204418E0,-3.753321880E0,6.850474973E0
7.073440625E0,-1.237747380E0,-4.515106491E0,-4.031008490E0,6.177963633E0
7.083429625E0,-1.426496378E0,-3.115987068E0,-3.942733660E0,5.223927263E0
7.093418625E0,-1.551553119E0,-1.299510934E0,-3.660932949E0,4.183117953E0
7.103407625E0,-1.637925411E0,7.278011781E-1,-3.474211473E0,3.909301672E0
7.113396625E0,-1.568381844E0,2.761786718E0,-3.221134624E0,4.523604287E0
7.123385625E0,-1.541388173E0,4.834359788E0,-2.646787773E0,5.722971044E0
7.133374625E0,-1.677088746E0,6.678329530E0,-2.039359716E0,7.181343887E0
7.143363625E0,-1.890367106E0,7.549943562E0,-1.750765709E0,7.977488085E0
7.153353625E0,-2.127006555E0,6.506720767E0,-1.752287155E0,7.066263673E0
7.163342625E0,-2.470780443E0,4.940230644E0,-1.929486440E0,5.850944602E0
7.173331625E0,-3.017170878E0,4.440000175E0,-1.959520079E0,5.714598901E0
7.183320625E0,-3.647841033E0,4.376597646E0,-1.998144447E0,6.037709201E0
7.193309625E0,-4.177062582E0,4.937792940E0,-1.992227064E0,6.767467739E0
7.203298625E0,-4.603932129E0,6.191377503E0,-1.914591243E0,7.949528669E0
7.213287625E0,-4.696497645E0,7.647103236E0,-2.041776370E0,9.203484600E0
7.223276625E0,-4.140026318E0,7.580464858E0,-1.483456153E0,8.763783859E0
7.233265625E0,-2.934875996E0,6.448714634E0,-5.278281569E-1,7.104788533E0
7.243254625E0,-1.432813126E0,5.580336451E0,1.891832272E-1,5.764451288E0
7.253244625E0,-3.184329325E-1,5.706675485E0,7.700981820E-1,5.767200000E0
7.263233625E0,4.486431891E-1,6.475495466E0,1.083729966E0,6.580865663E0
7.273222625E0,9.455389906E-1,7.366243342E0,1.434092789E0,7.563875136E0
7.283211625E0,1.478626645E0,7.709051562E0,1.729850804E0,8.037922402E0
7.293200625E0,2.135421867E0,7.215743612E0,1.969712945E0,7.778608585E0
7.303189625E0,2.661707529E0,6.367293910E0,2.286222728E0,7.270071050E0
7.313178625E0,3.049471482E0,5.797250610E0,2.728544712E0,7.095938782E0
7.323167625E0,3.291461718E0,5.391200659E0,3.395043097E0,7.171128392E0
7.333156625E0,3.303989085E0,4.546900726E0,4.185895386E0,7.008021851E0
7.343146625E0,3.008023786E0,3.206780879E0,4.910251969E0,6.591071620E0
7.353135625E0,2.389026135E0,1.528204309E0,5.253732619E0,5.970306585E0
7.363124625E0,1.556960039E0,-7.890115857E-2,4.994050756E0,5.231719880E0
7.373113625E0,8.054494245E-1,-1.237324626E0,4.274221087E0,4.522022435E0
7.383102625E0,4.337410484E-1,-2.055566443E0,3.427771132E0,4.020335761E0
7.393091625E0,2.731939386E-1,-2.928368629E0,2.789389669E0,4.053476592E0
7.403080625E0,2.417978989E-1,-3.603612694E0,2.317453877E0,4.291279896E0
7.413069625E0,4.945047288E-1,-4.032888955E0,2.097673413E0,4.572631846E0
7.423058625E0,7.200919166E-1,-4.504738208E0,1.761877173E0,4.890338420E0
7.433047625E0,8.972426704E-1,-4.933567742E0,1.519676145E0,5.239709024E0
7.443037625E0,9.109461319E-1,-5.349872539E0,1.466232594E0,5.621458624E0
7.453026625E0,7.899310604E-1,-6.031404700E0,1.507188832E0,6.266853429E0
7.463015625E0,5.792808407E-1,-6.988058882E0,1.564144220E0,7.184363602E0
7.473004625E0,3.958062867E-1,-7.760949109E0,1.796138349E0,7.975907889E0
7.482993625E0,2.642329345E-1,-8.110606758E0,2.125681576E0,8.388699732E0
7.492982625E0,2.539043762E-2,-7.739805577E0,2.411256080E0,8.106749714E0
7.502971625E0,-4.321098214E-1,-6.939866130E0,2.361737764E0,7.343450556E0
7.512960625E0,-9.414314678E-1,-6.270501441E0,1.829659851E0,6.599480032E0
7.522949625E0,-1.411739176E0,-5.938141610E0,1.084174354E0,6.199190859E0
7.532938625E0,-1.669597439E0,-5.942265067E0,3.947045982E-1,6.184970610E0
7.542928625E0,-1.748937577E0,-6.006125432E0,-8.756614745E-2,6.256196383E0
7.552917625E0,-1.694979179E0,-5.953170708E0,-4.348328698E-1,6.205020187E0
7.562906625E0,-1.614889574E0,-5.702066125E0,-7.128112561E-1,5.969047354E0
7.572895625E0,-1.562926245E0,-5.245450038E0,-9.236846566E-1,5.550736699E0
7.582884625E0,-1.582129379E0,-4.657750486E0,-1.084058652E0,5.037157544E0
7.592873625E0,-1.585777603E0,-3.894694106E0,-1.282812456E0,4.396469104E0
7.602862625E0,-1.472184329E0,-2.901402440E0,-1.461959595E0,3.566901831E0
7.612851625E0,-1.368501647E0,-1.316715197E0,-1.615949966E0,2.493557692E0
7.622840625E0,-1.361530889E0,7.174644703E-1,-1.595795783E0,2.216999281E0
7.632830625E0,-1.317883032E0,2.587706337E0,-1.466107902E0,3.253077336E0
7.642819625E0,-1.214192603E0,4.502415109E0,-1.033606464E0,4.776436728E0
7.652808625E0,-1.005062257E0,6.468138499E0,-6.470546383E-1,6.577662616E0
7.662797625E0,-9.607405818E-1,8.351581040E0,-4.587234235E-1,8.419165963E0
7.672786625E0,-1.429698752E0,8.747610033E0,-3.801894701E-1,8.871824155E0
7.682775625E0,-2.417967806E0,7.618598644E0,-5.017280866E-1,8.008829171E0
7.692764625E0,-2.991604512E0,6.097219790E0,-7.623947677E-1,6.834254349E0
7.702753625E0,-3.232571193E0,6.040498874E0,-1.234663851E0,6.961432180E0
7.712742625E0,-3.182945289E0,6.147102386E0,-1.940882664E0,7.189230416E0
7.722731625E0,-3.165763538E0,6.646799589E0,-2.277852001E0,7.706530561E0
7.732721625E0,-2.951514248E0,7.319866151E0,-3.074850737E0,8.470335523E0
7.742710625E0,-3.077308614E0,5.573478836E0,-4.021951738E0,7.530577032E0
7.752699625E0,-2.620116284E0,3.450287590E0,-4.244471038E0,6.065066215E0
7.762688625E0,-1.859560612E0,2.224576119E0,-4.123027877E0,5.040442783E0
7.772677625E0,-1.034458549E0,1.628550716E0,-3.886034964E0,4.338611491E0
7.782666625E0,-1.505781553E-1,1.237752643E0,-3.566969948E0,3.778621441E0
7.792655625E0,4.912061317E-1,1.273189693E0,-3.047793331E0,3.339362162E0
7.802644625E0,1.025862996E0,2.099987156E0,-2.388867676E0,3.342009831E0
7.812633625E0,1.678606390E0,3.473005192E0,-1.449102007E0,4.120604459E0
7.822622625E0,2.363517949E0,4.980258343E0,-7.816097416E-2,5.513193213E0
7.832612625E0,3.240096560E0,6.422985715E0,2.402915611E0,7.584653891E0
7.842601625E0,4.210390834E0,7.626937358E0,7.374474467E0,1.141404565E1
7.852590625E0,4.772873392E0,7.551979562E0,1.222267812E1,1.513956988E1
7.862579625E0,5.033027126E0,5.594590793E0,1.346236970E1,1.542291173E1
7.872568500E0,4.837028749E0,2.270926997E0,1.042174506E1,1.171181995E1
7.882557500E0,3.694546253E0,4.948083454E-1,5.925324513E0,7.000284130E0
7.892546500E0,2.886060223E0,-5.172312480E-1,2.769912009E0,4.033520089E0
7.902535500E0,2.732483397E0,-1.691552711E0,8.530578929E-1,3.324984790E0
7.912524500E0,2.568412864E0,-2.804731593E0,-2.033538812E-1,3.808492714E0
7.922513500E0,2.228540385E0,-3.751449017E0,-7.021617222E-1,4.419591956E0
7.932503500E0,1.939268247E0,-4.639797780E0,-9.378208852E-1,5.115466038E0
7.942492500E0,1.757128942E0,-5.379515584E0,-1.141013383E0,5.773092895E0
7.952481500E0,1.652788010E0,-5.723428343E0,-1.191452635E0,6.075269507E0
7.962470500E0,1.520069371E0,-5.997670358E0,-1.206614465E0,6.303854304E0
7.972459500E0,1.331443748E0,-6.322825835E0,-1.233803433E0,6.578232278E0
7.982448500E0,1.106363368E0,-6.477795176E0,-1.256888241E0,6.690712839E0
7.992437500E0,1.019268945E0,-6.468078273E0,-1.371517641E0,6.689993002E0
8.002426500E0,1.021257144E0,-6.457027035E0,-1.490999061E0,6.705165359E0
8.012415500E0,9.297780401E-1,-6.527761388E0,-1.648596141E0,6.796618657E0
8.022404500E0,8.249718158E-1,-6.681362481E0,-1.811082662E0,6.971456340E0
8.032394500E0,7.061163403E-1,-6.761896182E0,-1.875761638E0,7.052681900E0
8.042383500E0,5.517306975E-1,-6.667803957E0,-1.914813437E0,6.959204471E0
8.052372500E0,2.675451080E-1,-6.266304309E0,-1.950663886E0,6.568351367E0
8.062361500E0,-8.562984198E-2,-5.884837807E0,-2.029991307E0,6.225713870E0
8.072350500E0,-5.816060591E-1,-5.609282507E0,-2.119337347E0,6.024442434E0
8.082339500E0,-1.017919334E0,-5.324075793E0,-2.115063617E0,5.818542509E0
8.092328500E0,-1.314593389E0,-4.873309261E0,-2.061852785E0,5.452388085E0
8.102317500E0,-1.519238627E0,-4.338138755E0,-2.225532138E0,5.106909747E0
8.112306500E0,-1.780315344E0,-3.757406160E0,-2.393620877E0,4.797608225E0
8.122295500E0,-2.070920208E0,-3.153481754E0,-2.431794425E0,4.488516660E0
8.132285500E0,-2.215079509E0,-2.310086970E0,-2.368745068E0,3.981712224E0
8.142274500E0,-2.160985163E0,-1.130361511E0,-2.221643155E0,3.298980499E0
8.152263500E0,-1.996765235E0,1.398554581E-1,-1.992852132E0,2.824551393E0
8.162252500E0,-1.693812221E0,1.650377203E0,-1.848600737E0,3.001677770E0
8.172241500E0,-1.077919880E0,3.914230823E0,-1.532651702E0,4.339600839E0
8.182230500E0,-7.706344447E-1,5.973640641E0,-1.303882897E0,6.162659374E0
8.192219500E0,-8.652648327E-1,6.302194519E0,-1.193849993E0,6.472373351E0
8.202208500E0,-1.257379699E0,5.616728936E0,-1.159636765E0,5.871405716E0
8.212197500E0,-1.526220349E0,4.911306222E0,-1.008858123E0,5.240999148E0
8.222186500E0,-1.987729386E0,4.392643576E0,-8.169887584E-1,4.890179580E0
8.232176500E0,-2.622095274E0,3.938694988E0,-9.888097751E-1,4.833885250E0
8.242165500E0,-3.246752445E0,4.114053571E0,-1.593283235E0,5.477717562E0
8.252154500E0,-3.753716860E0,4.809775754E0,-2.102771015E0,6.453369586E0
8.262143500E0,-4.079872210E0,5.640895479E0,-2.444042441E0,7.378238442E0
8.272132500E0,-4.123236915E0,5.818061435E0,-2.531636217E0,7.567040601E0
8.282121500E0,-4.052073962E0,5.556478057E0,-2.134978795E0,7.200825386E0
8.292110500E0,-3.549411636E0,4.530661254E0,-1.536886840E0,5.957116376E0
8.302099500E0,-2.681537484E0,3.556098220E0,-4.820128834E-1,4.479823015E0
8.312088500E0,-1.839705514E0,3.725755767E0,6.135227568E-1,4.200259823E0
8.322077500E0,-1.050274902E0,4.614315614E0,1.375031087E0,4.928051993E0
8.332066500E0,-4.154540277E-1,5.572560239E0,1.837990379E0,5.882536723E0
8.342056500E0,1.408755415E-1,6.212730950E0,2.068596379E0,6.549577296E0
8.352045500E0,6.730362294E-1,6.472729148E0,2.211414621E0,6.873103740E0
8.362034500E0,1.246794485E0,6.259833781E0,2.391759270E0,6.816195996E0
8.372023500E0,1.826119070E0,5.853248225E0,2.694696350E0,6.697508048E0
8.382012500E0,2.354363841E0,5.797464033E0,3.192446430E0,7.024623301E0
8.392001500E0,2.810281478E0,5.549124014E0,3.809956841E0,7.294260102E0
8.401990500E0,3.311864115E0,4.811397187E0,4.538849695E0,7.397238901E0
8.411979500E0,3.443851560E0,3.242886266E0,4.973391373E0,6.863748732E0
8.421968500E0,2.943064144E0,9.777819264E-1,4.716655337E0,5.644866838E0
8.431957500E0,1.978860768E0,-7.334922731E-1,4.163699355E0,4.668007409E0
8.441946500E0,1.027988971E0,-1.764405509E0,3.605361304E0,4.143491071E0
8.451936500E0,2.306212751E-1,-2.609627548E0,3.077145184E0,4.041307288E0
8.461925500E0,-3.633668844E-1,-3.548284585E0,2.470776057E0,4.339019857E0
8.471914500E0,-7.117111024E-1,-4.229523216E0,1.957058547E0,4.714390468E0
8.481903500E0,-9.164365212E-1,-4.691989442E0,1.555199150E0,5.027252253E0
8.491892500E0,-1.094891569E0,-5.060946411E0,1.216208065E0,5.318940513E0
8.501881500E0,-1.270625250E0,-5.269333575E0,8.630116081E-1,5.488638619E0
8.511870500E0,-1.393034225E0,-5.394606078E0,6.335633576E-1,5.607470162E0
8.521859500E0,-1.471556338E0,-5.557296667E0,4.993966556E-1,5.770478431E0
8.531848500E0,-1.468179279E0,-5.660237483E0,4.493469016E-1,5.864789118E0
8.541837500E0,-1.403916040E0,-5.623263200E0,4.260960332E-1,5.811508160E0
8.551827500E0,-1.341249383E0,-5.587139102E0,3.171622594E-1,5.754621199E0
8.561816500E0,-1.179161130E0,-5.572263785E0,2.824181771E-1,5.702657686E0
8.571805500E0,-1.011584242E0,-5.661986970E0,2.804932737E-1,5.758478584E0
8.581794500E0,-8.691262608E-1,-5.762318174E0,2.451889185E-1,5.832650238E0
8.591783500E0,-8.222438704E-1,-5.706567897E0,2.615120423E-1,5.771428826E0
8.601772500E0,-8.338315900E-1,-5.657595711E0,2.759686983E-1,5.725366632E0
8.611761500E0,-8.155220575E-1,-5.507587148E0,2.847781134E-1,5.574916232E0
8.621750500E0,-7.934566391E-1,-5.212739545E0,2.959907341E-1,5.281082987E0
8.631739500E0,-7.563790061E-1,-4.698716079E0,3.461732930E-1,4.771779326E0
8.641728500E0,-7.639093427E-1,-3.991142759E0,3.826745367E-1,4.081570507E0
8.651718500E0,-8.388731325E-1,-2.894558859E0,3.459060752E-1,3.033451851E0
8.661707500E0,-8.938354247E-1,-1.499648847E0,2.415526082E-1,1.762451728E0
8.671696500E0,-9.698004039E-1,2.929513514E-2,1.939024419E-1,9.894287167E-1
8.681685500E0,-1.017881693E0,1.480792746E0,2.094466799E-1,1.809060035E0
8.691674500E0,-1.073590090E0,2.508787637E0,2.512653816E-1,2.740391465E0
8.701663500E0,-1.201766831E0,3.308921211E0,3.039715987E-1,3.533497111E0
8.711652500E0,-1.408904153E0,4.384760944E0,3.700848967E-1,4.620400662E0
8.721641500E0,-1.846550995E0,5.572280742E0,2.997697896E-1,5.877918439E0
8.731630500E0,-2.366684509E0,5.930788152E0,2.201768323E-1,6.389360023E0
8.741619500E0,-2.755854425E0,5.859762608E0,-2.521027029E-2,6.475506698E0
8.751608500E0,-3.006009420E0,5.633164875E0,-3.814875519E-1,6.396418677E0
8.761598500E0,-3.205159738E0,5.824862916E0,-6.920938401E-1,6.684390086E0
8.771587500E0,-3.329190292E0,6.358233649E0,-9.513484186E-1,7.239869263E0
8.781576500E0,-3.307347433E0,6.554881359E0,-1.099939617E0,7.423939913E0
8.791565500E0,-2.920471964E0,5.935876399E0,-1.104971000E0,6.707066872E0
8.801554500E0,-1.948349850E0,4.464939719E0,-1.009288625E0,4.974979132E0
8.811543500E0,-1.069665658E0,3.219537165E0,-8.642031245E-1,3.500921481E0
8.821532500E0,-4.418160532E-1,2.355186544E0,-7.066202241E-1,2.498282855E0
8.831521500E0,1.734241039E-1,1.647838342E0,-6.661319102E-1,1.785827215E0
8.841510500E0,7.401176801E-1,1.549292293E0,-6.897340500E-1,1.850355060E0
8.851499500E0,1.204294436E0,1.736255844E0,-6.567826509E-1,2.212752335E0
8.861488500E0,1.635748639E0,2.030854940E0,-5.257810467E-1,2.660167496E0
8.871478125E0,2.069156834E0,2.460858010E0,-1.596213859E-1,3.219116515E0
8.881467125E0,2.518941911E0,2.774704971E0,7.073961496E-1,3.813720669E0
8.891456125E0,2.809340076E0,2.989035246E0,1.757041526E0,4.462501349E0
8.901445125E0,3.012262433E0,3.232877002E0,2.927595043E0,5.300568970E0
8.911434125E0,3.066272287E0,3.378061613E0,4.244098570E0,6.231027096E0
8.921423125E0,2.892465848E0,3.129083662E0,5.315184517E0,6.812393830E0
8.931412125E0,2.547323127E0,2.331124667E0,5.896738061E0,6.833338648E0
8.941401125E0,2.047717141E0,1.622887688E0,5.367204271E0,5.969404629E0
8.951390125E0,1.630475181E0,5.210529882E-1,3.876037395E0,4.237170214E0
8.961379125E0,1.402543552E0,-7.831795728E-1,2.185329022E0,2.712224473E0
8.971368125E0,1.425553515E0,-1.877881839E0,1.127830762E0,2.613550316E0
8.981358125E0,1.562114359E0,-2.786695272E0,5.372737491E-1,3.239526955E0
8.991347125E0,1.644533495E0,-3.519293506E0,9.513185978E-2,3.885738960E0
9.001336125E0,1.757306259E0,-4.190274950E0,-4.840325117E-2,4.544103027E0
9.011325125E0,1.816408306E0,-4.934035519E0,-1.977089792E-1,5.261476454E0
9.021314125E0,1.755262072E0,-5.501820624E0,-3.939766198E-1,5.788453394E0
9.031303125E0,1.514791528E0,-5.797583317E0,-5.834281611E-1,6.020544336E0
9.041292125E0,1.238835693E0,-6.039542854E0,-8.069205109E-1,6.217870413E0
9.051281125E0,1.009795067E0,-6.167047824E0,-1.066751552E0,6.339568109E0
9.061270125E0,8.685333531E-1,-6.083692256E0,-1.341816271E0,6.290161568E0
9.071259125E0,6.664697331E-1,-6.017011194E0,-1.804548545E0,6.317040530E0
9.081248125E0,5.301508903E-1,-5.988732889E0,-2.288278756E0,6.432899910E0
9.091238125E0,4.983874627E-1,-5.923480886E0,-2.653338994E0,6.509702273E0
9.101227125E0,5.755384765E-1,-5.767564881E0,-2.948199461E0,6.502916980E0
9.111216125E0,8.120894495E-1,-5.811666920E0,-3.539864595E0,6.853145483E0
9.121205125E0,8.547229607E-1,-6.140551166E0,-4.053913203E0,7.407505128E0
9.131194125E0,7.729185864E-1,-6.298770390E0,-4.479766504E0,7.767896723E0
9.141183125E0,5.976775333E-1,-6.447294345E0,-4.499176337E0,7.884631286E0
9.151172125E0,2.824854201E-1,-6.156326954E0,-4.232785962E0,7.476405325E0
9.161161125E0,-5.714008771E-3,-5.391097164E0,-4.081193973E0,6.761664405E0
9.171150125E0,-2.426147184E-1,-4.349612746E0,-3.820785300E0,5.794514065E0
9.181139125E0,-4.619388805E-1,-2.957953786E0,-3.620519333E0,4.697982373E0
9.191128125E0,-7.308409993E-1,-1.262095186E0,-3.476322318E0,3.769858045E0
9.201118125E0,-1.003202916E0,6.772976071E-1,-3.349438908E0,3.561444810E0
9.211107125E0,-1.152852606E0,2.822963796E0,-3.182366999E0,4.407454304E0
9.221096125E0,-1.258408955E0,4.944464028E0,-2.728309654E0,5.785757616E0
9.231085125E0,-1.483264218E0,6.921496518E0,-2.178836859E0,7.406383520E0
9.241074125E0,-1.672502628E0,7.687492878E0,-1.659848523E0,8.040516706E0
9.251063125E0,-1.995897069E0,7.076634843E0,-1.223234518E0,7.453768745E0
9.261052125E0,-2.352427828E0,6.171679988E0,-1.036961011E0,6.685719011E0
9.271041125E0,-2.793171648E0,5.860860715E0,-8.011785451E-1,6.541665173E0
9.281030125E0,-3.397788949E0,5.837010507E0,-7.322947633E-1,6.793520223E0
9.291019125E0,-3.891132859E0,5.587571796E0,-7.641550720E-1,6.851700991E0
9.301008125E0,-4.235665716E0,6.098768717E0,-8.199608982E-1,7.470487253E0
9.310998125E0,-4.188737425E0,6.923123798E0,-1.098965471E0,8.165959187E0
9.320987125E0,-3.766469929E0,6.540715309E0,-1.167014197E0,7.637353902E0
9.330976125E0,-2.980583973E0,4.793482488E0,-1.004927040E0,5.733344010E0
9.340965125E0,-2.122591322E0,3.928775187E0,-9.071534085E-1,4.556708867E0
9.350954125E0,-1.424880500E0,4.159574144E0,-8.375844061E-1,4.475923273E0
9.360943125E0,-6.596610890E-1,4.531085177E0,-4.913730697E-1,4.605142031E0
9.370932125E0,-6.331851158E-2,4.638302062E0,1.412582783E-1,4.640884523E0
9.380921125E0,4.551999279E-1,4.270466589E0,6.739897641E-1,4.347223719E0
9.390910125E0,9.261651917E-1,3.783421007E0,9.951785624E-1,4.020253332E0
9.400899125E0,1.367213506E0,3.642551057E0,1.349387684E0,4.118045422E0
9.410888125E0,1.738262170E0,3.610165084E0,1.787756950E0,4.387587289E0
9.420877125E0,2.088711093E0,3.533909791E0,2.349386691E0,4.729783321E0
9.430867125E0,2.476286181E0,3.416072608E0,3.027112899E0,5.192779392E0
9.440856125E0,2.722675569E0,3.290717075E0,3.656819433E0,5.622642572E0
9.450845125E0,2.913096579E0,2.833489369E0,4.029800456E0,5.723118503E0
9.460834125E0,3.028851276E0,1.753955365E0,4.242364286E0,5.499814016E0
9.470823125E0,2.828888195E0,5.647357821E-1,4.221335360E0,5.112847264E0
9.480812125E0,2.179749317E0,-5.574209154E-1,3.899463680E0,4.501982025E0
9.490801125E0,1.215370524E0,-1.329256305E0,3.245352037E0,3.711651611E0
9.500790125E0,3.187665892E-1,-1.729983535E0,2.587677101E0,3.128981935E0
9.510779125E0,-4.449493568E-1,-2.259016804E0,2.080663862E0,3.103272298E0
9.520768125E0,-9.549920379E-1,-2.925487121E0,1.692689409E0,3.512218975E0
9.530757125E0,-1.435148942E0,-3.504930405E0,1.347742277E0,4.020024736E0
9.540747125E0,-1.813377841E0,-3.855469229E0,1.215609091E0,4.430653183E0
9.550736125E0,-2.117869842E0,-4.207332448E0,1.183969953E0,4.856830638E0
9.560725125E0,-2.267891415E0,-4.629337696E0,1.206747197E0,5.294368496E0
9.570714125E0,-2.268937482E0,-5.141553787E0,1.211543083E0,5.749042467E0
9.580703125E0,-2.190952874E0,-5.524031857E0,1.257133824E0,6.074173846E0
9.590692125E0,-1.974328445E0,-5.904113739E0,1.227333051E0,6.345303638E0
9.600681125E0,-1.664094332E0,-6.359970857E0,1.064234179E0,6.659657171E0
9.610670125E0,-1.253208003E0,-6.839752443E0,9.410988343E-1,7.017008678E0
9.620659125E0,-6.708998761E-1,-7.232162594E0,9.873829083E-1,7.330020971E0
9.630648125E0,-9.827890433E-3,-7.081240695E0,1.097074335E0,7.165726653E0
9.640637125E0,4.114499275E-1,-6.652076701E0,9.779912567E-1,6.736162288E0
9.650626125E0,5.560122846E-1,-6.299174432E0,8.444081068E-1,6.379794138E0
9.660616125E0,5.473664088E-1,-5.968965207E0,6.639898559E-1,6.030674768E0
9.670605125E0,5.072283066E-1,-5.371025426E0,6.024912536E-1,5.428461144E0
9.680594125E0,6.029153595E-1,-4.552508790E0,6.991597617E-1,4.645176809E0
9.690583125E0,8.463832963E-1,-3.522822300E0,9.700636017E-1,3.750688608E0
9.700572125E0,1.069685465E0,-2.401400013E0,1.470895164E0,3.012388023E0
9.710561125E0,1.205001291E0,-1.660275954E0,2.176501481E0,2.990936819E0
9.720550125E0,1.118398473E0,-7.644819313E-1,2.387316409E0,2.744909362E0
9.730539125E0,7.095847625E-1,5.648819625E-1,1.982568634E0,2.180179019E0
9.740528125E0,5.909225374E-2,1.739522098E0,1.392064757E0,2.228738054E0
9.750517125E0,-6.331150954E-1,3.004937918E0,9.341669601E-1,3.209852726E0
9.760506125E0,-1.300775541E0,4.395442638E0,5.479226252E-1,4.616508658E0
9.770495125E0,-2.063404051E0,5.459255233E0,1.754303933E-1,5.838825207E0
9.780485125E0,-2.742559026E0,5.788321327E0,-1.931897394E-1,6.408089893E0
9.790474125E0,-3.173630967E0,5.453327910E0,-4.859645049E-1,6.328260449E0
9.800463125E0,-3.533888741E0,5.833209817E0,-7.570307513E-1,6.862055228E0
9.810452125E0,-3.555290427E0,6.477481765E0,-1.000567356E0,7.456473367E0
9.820441125E0,-3.122949640E0,6.653197027E0,-1.343336254E0,7.471438779E0
9.830430125E0,-2.351193773E0,6.039008419E0,-1.547762661E0,6.662830037E0
9.840419125E0,-1.611148964E0,5.236126068E0,-1.600750860E0,5.707470587E0
9.850408125E0,-1.125957680E0,4.586762949E0,-1.591208204E0,4.983785569E0
9.860397125E0,-7.561452636E-1,3.690761935E0,-1.439534792E0,4.033080676E0
9.870389125E0,-3.183587825E-1,2.403428412E0,-1.219233926E0,2.713733924E0
9.880378125E0,1.540448964E-1,1.402311417E0,-1.217085659E0,1.863197425E0
9.890367125E0,8.532279007E-1,1.082044798E0,-1.336448380E0,1.919612739E0
9.900357125E0,1.428528724E0,1.267074090E0,-1.465004679E0,2.406742565E0
9.910346125E0,1.938470541E0,1.636312895E0,-1.408318408E0,2.901473534E0
9.920335125E0,2.494204096E0,2.455961552E0,-1.041424337E0,3.652035852E0
9.930324125E0,3.083396150E0,3.533543170E0,-2.297873890E-1,4.695323354E0
9.940313125E0,3.557459159E0,4.370667400E0,9.316222519E-1,5.711932179E0
9.950302125E0,3.791122375E0,4.639978459E0,2.018416743E0,6.322658864E0
9.960291125E0,3.802860076E0,4.486467998E0,3.207381973E0,6.699062544E0
9.970280125E0,3.632649090E0,4.059607807E0,4.232466120E0,6.898574085E0
9.980269125E0,3.333476009E0,3.283470036E0,4.514408918E0,6.501778653E0
9.990258125E0,2.816344163E0,2.171789210E0,3.821509185E0,5.220382675E0
1.000024712E1,2.027454492E0,8.227049965E-1,2.637366740E0,3.426823390E0
1.001023612E1,1.294756417E0,-5.920136279E-1,1.412054048E0,2.005186014E0
1.002022612E1,7.048480792E-1,-1.857730579E0,4.967279132E-1,2.048099690E0
1.003021512E1,4.011119771E-1,-2.961980764E0,-1.901982307E-2,2.989077218E0
1.004020412E1,2.337316101E-1,-4.046158041E0,-4.280771430E-1,4.075447877E0
1.005019313E1,1.983174734E-1,-4.773118975E0,-6.761247287E-1,4.824846030E0
1.006018213E1,2.485788783E-1,-5.188318064E0,-7.423093627E-1,5.247042879E0
1.007017113E1,2.710171299E-1,-5.465526372E0,-7.844460797E-1,5.528180935E0
1.008016013E1,2.782995446E-1,-5.655205370E0,-7.798519224E-1,5.715502378E0
1.009014912E1,2.147757592E-1,-5.730039205E0,-7.847822946E-1,5.787517703E0
1.010013812E1,1.959355553E-1,-5.929770151E0,-8.567971873E-1,5.994553045E0
1.011012712E1,1.920235122E-1,-6.021795385E0,-1.069561066E0,6.119056591E0
1.012011612E1,2.102124825E-1,-6.096939123E0,-1.492370818E0,6.280447963E0
1.013010512E1,1.178171562E-1,-6.179394220E0,-2.056693786E0,6.513738031E0
1.014009512E1,-3.798497468E-3,-6.297706781E0,-2.569580553E0,6.801754873E0
1.015008412E1,-9.430754855E-2,-6.475861502E0,-3.273295296E0,7.256730545E0
1.016007313E1,-1.320242822E-1,-6.430806366E0,-4.365175111E0,7.773509804E0
1.017006213E1,-2.905440893E-1,-6.463539079E0,-4.604903936E0,7.941466713E0
1.018005113E1,-3.641902089E-1,-6.609952775E0,-4.328116627E0,7.909279596E0
1.019004013E1,-1.993689672E-1,-6.514020431E0,-4.108028600E0,7.703772396E0
1.020002912E1,-1.294645539E-1,-6.060905657E0,-3.800496047E0,7.155075726E0
1.021001812E1,-1.377962881E-1,-5.419492412E0,-3.395245410E0,6.396684862E0
1.022000712E1,-2.074660087E-1,-4.460326266E0,-3.046802813E0,5.405604492E0
1.022999612E1,-2.798509023E-1,-3.137072713E0,-2.885268803E0,4.271336769E0
1.023998512E1,-3.202471773E-1,-1.657648215E0,-2.793031315E0,3.263645168E0
1.024997412E1,-2.938886235E-1,-2.125965750E-1,-2.783655889E0,2.807188618E0
1.025996412E1,-1.345673094E-1,1.459398369E0,-2.664327666E0,3.040821250E0
1.026995313E1,3.508749660E-1,4.047326900E0,-2.175466524E0,4.608321047E0
1.027994213E1,9.841412120E-1,7.101552753E0,-1.385165042E0,7.302004356E0
1.028993113E1,5.966074198E-1,8.290375895E0,-3.268804049E-1,8.318240420E0
1.029992013E1,-2.643179932E-1,7.330189410E0,2.745735069E-2,7.335004751E0
1.030990912E1,-8.283289216E-1,5.880441871E0,7.884736419E-2,5.939018631E0
1.031989812E1,-1.185317809E0,5.638935492E0,-1.721911454E-1,5.764739507E0
1.032988712E1,-1.571377518E0,5.888998101E0,-6.819864893E-1,6.133076839E0
1.033987612E1,-2.133047167E0,6.237682773E0,-1.186273683E0,6.698195417E0
1.034986512E1,-2.716715210E0,6.550398883E0,-1.274339840E0,7.205012775E0
1.035985412E1,-3.306337327E0,6.925606526E0,-1.259553401E0,7.777041021E0
1.036984312E1,-3.742950381E0,6.712112988E0,-9.675025213E-1,7.745850466E0
1.037983212E1,-4.110528284E0,5.317726886E0,-6.401356280E-1,6.751624666E0
1.038982213E1,-4.236852993E0,3.937449532E0,-5.161148684E-1,5.806961913E0
1.039981113E1,-4.217501341E0,3.501951249E0,-3.100075333E-1,5.490636099E0
1.040980013E1,-4.044881887E0,3.895359519E0,2.740486188E-1,5.622276932E0
1.041978912E1,-3.676271658E0,4.348545629E0,9.193096237E-1,5.768011146E0
1.042977812E1,-3.179601559E0,4.646526756E0,1.639517169E0,5.864136212E0
1.043976712E1,-2.575039221E0,4.858927449E0,2.387440370E0,5.994987445E0
1.044975612E1,-1.945775029E0,4.727044669E0,2.986123917E0,5.920129037E0
1.045974512E1,-1.308068042E0,4.242396446E0,3.238310820E0,5.495054738E0
1.046973412E1,-7.545516781E-1,3.806073706E0,3.224161727E0,5.044875036E0
1.047972312E1,-2.807893073E-1,3.699989426E0,3.008264107E0,4.776862707E0
1.048971212E1,1.743903380E-1,3.429450452E0,2.779602599E0,4.417887844E0
1.049970112E1,6.771739385E-1,2.814147364E0,2.710378582E0,3.965367826E0
1.050969012E1,1.079167529E0,2.057930472E0,2.773974069E0,3.618647886E0
1.051968013E1,1.369150250E0,1.158060941E0,2.789063394E0,3.315803396E0
1.052966913E1,1.560286081E0,5.728107870E-2,2.766483786E0,3.176665912E0
1.053965812E1,1.736295459E0,-1.101318975E0,2.598680391E0,3.313723763E0
1.054964712E1,2.027793192E0,-2.242044675E0,2.278311300E0,3.785420972E0
1.055963612E1,2.165503161E0,-3.136280415E0,1.973542871E0,4.291914520E0
1.056962512E1,2.032492892E0,-3.885473047E0,1.581251858E0,4.661360916E0
1.057961412E1,1.680448848E0,-4.552119951E0,1.174244791E0,4.992449820E0
1.058960312E1,1.261889072E0,-4.922735190E0,8.662615637E-1,5.155200760E0
1.059959212E1,8.774689950E-1,-5.050317342E0,5.916563630E-1,5.160011080E0
1.060958112E1,5.709408474E-1,-5.182874306E0,4.607909989E-1,5.234547532E0
1.061957012E1,4.189228883E-1,-5.360685210E0,4.438269838E-1,5.395315070E0
1.062955913E1,2.928854423E-1,-5.578797464E0,4.052694205E-1,5.601161159E0
1.063954813E1,2.269354644E-1,-5.769017914E0,3.745760699E-1,5.785617912E0
1.064953713E1,1.934742064E-1,-5.836825735E0,3.133161072E-1,5.848430038E0
1.065952712E1,1.451570920E-1,-5.858154624E0,2.705881635E-1,5.866196735E0
1.066951612E1,1.133206473E-1,-5.873481930E0,1.943171191E-1,5.877787908E0
1.067950512E1,8.157209359E-2,-5.900261593E0,1.348555406E-1,5.902366211E0
1.068949412E1,5.564835336E-2,-5.898948893E0,7.964613039E-2,5.899749002E0
1.069948312E1,4.708178043E-2,-5.811730070E0,3.159246963E-2,5.812006640E0
1.070947212E1,3.783510324E-2,-5.582415721E0,2.513718009E-2,5.582600528E0
1.071946112E1,9.448369592E-2,-5.196587781E0,8.548629284E-4,5.197446725E0
1.072945012E1,1.425588452E-1,-4.713257520E0,7.627126370E-3,4.715419138E0
1.073943912E1,1.103213546E-1,-4.029304027E0,8.215571880E-2,4.031651188E0
1.074942813E1,2.150532827E-3,-3.087779515E0,1.229225063E-1,3.090226028E0
1.075941713E1,-7.123933263E-2,-1.754690945E0,2.338406789E-1,1.771636763E0
1.076940613E1,-1.242981369E-1,-1.116350412E-1,3.061122644E-1,3.487364731E-1
1.077939513E1,-1.548323701E-1,1.459304813E0,3.379848522E-1,1.505914128E0
1.078938512E1,-2.781820887E-1,2.841569052E0,3.665028924E-1,2.878580261E0
1.079937412E1,-5.408493215E-1,4.096870943E0,3.282200386E-1,4.145430967E0
1.080936312E1,-9.437620217E-1,5.246185618E0,2.836811757E-1,5.337942047E0
1.081935212E1,-1.565376960E0,6.244947939E0,1.807976621E-1,6.440688440E0
1.082934112E1,-2.161370056E0,6.148944844E0,5.625079930E-2,6.517991053E0
1.083933012E1,-2.557174516E0,5.284742743E0,-2.416988251E-1,5.875888502E0
1.084931912E1,-2.893433855E0,4.770733895E0,-6.324542139E-1,5.615323651E0
1.085930813E1,-3.215936449E0,5.187178441E0,-8.312981377E-1,6.159555505E0
1.086929738E1,-3.403999861E0,5.612172201E0,-9.459432524E-1,6.631628798E0
1.087928638E1,-3.585672267E0,5.760817779E0,-1.035613228E0,6.864150482E0
1.088927537E1,-3.646771578E0,5.692238125E0,-1.288587166E0,6.881931030E0
1.089926437E1,-3.278254027E0,5.076177823E0,-1.564993821E0,6.242093913E0
1.090925337E1,-2.263243463E0,3.732473633E0,-1.832291683E0,4.734017660E0
1.091924237E1,-1.132843580E0,2.693884172E0,-2.047381511E0,3.568209293E0
1.092923237E1,-3.650096231E-1,2.502090821E0,-2.205017328E0,3.354965263E0
1.093922137E1,4.208217716E-1,2.275127637E0,-2.317649758E0,3.274873605E0
1.094921037E1,1.113250876E0,2.179513382E0,-2.343045385E0,3.388136327E0
1.095919938E1,1.628158660E0,2.235274769E0,-2.313947302E0,3.605787852E0
1.096918838E1,2.046523578E0,2.358146989E0,-2.153213483E0,3.792814823E0
1.097917738E1,2.379164660E0,2.891796634E0,-1.858013000E0,4.180325892E0
1.098916638E1,2.789194664E0,3.725969190E0,-1.223404160E0,4.812397637E0
1.099915537E1,3.104326843E0,4.035927753E0,-3.560363764E-1,5.104147321E0
1.100914437E1,3.183351963E0,3.764862530E0,2.949820163E-1,4.939122794E0
1.101913337E1,3.312178988E0,3.569584238E0,1.422919929E0,5.073180699E0
1.102912237E1,3.344561453E0,3.136976234E0,2.724023060E0,5.333574114E0
1.103911137E1,3.236949003E0,2.216280089E0,3.932976412E0,5.555001326E0
1.104910037E1,3.083198222E0,1.013849891E0,4.727787850E0,5.734629965E0
1.105908937E1,2.903050478E0,-2.919087929E-1,4.838622993E0,5.650237631E0
1.106907938E1,2.587567466E0,-1.456260753E0,3.989835321E0,4.973428059E0
1.107906838E1,2.140241435E0,-2.379058971E0,2.576313037E0,4.108277480E0
1.108905738E1,1.757842010E0,-3.240714610E0,1.287593724E0,3.905142419E0
1.109904638E1,1.427991804E0,-4.064898368E0,3.713812244E-1,4.324405548E0
1.110903538E1,1.218133188E0,-4.807801149E0,-2.792719366E-1,4.967574174E0
1.111902437E1,1.117454878E0,-5.347454715E0,-5.589458692E-1,5.491484118E0
1.112901337E1,1.082373412E0,-5.781065517E0,-7.397430197E-1,5.927855468E0
1.113900237E1,1.057701670E0,-6.120491123E0,-8.780255768E-1,6.272963680E0
1.114899137E1,1.031223577E0,-6.405090312E0,-9.906172226E-1,6.562768200E0
1.115898037E1,1.034705813E0,-6.484009597E0,-1.120932437E0,6.661042418E0
1.116896937E1,1.057539921E0,-6.527342727E0,-1.230113255E0,6.725903091E0
1.117895837E1,1.071498614E0,-6.716551024E0,-1.376933332E0,6.939460522E0
1.118894737E1,1.041864779E0,-6.927403960E0,-1.628384655E0,7.192082064E0
1.119893637E1,1.040544624E0,-7.132854068E0,-1.906319772E0,7.456164922E0
1.120892638E1,1.040781143E0,-7.311299980E0,-2.202672449E0,7.706497174E0
1.121891538E1,9.645344746E-1,-7.418630301E0,-2.656202375E0,7.938627926E0
1.122890437E1,6.967705894E-1,-7.358300484E0,-3.337115316E0,8.109649431E0
1.123889337E1,3.457023729E-1,-7.224691021E0,-3.746778261E0,8.145797556E0
1.124888237E1,-2.879103206E-2,-6.727618049E0,-3.751700447E0,7.703046786E0
1.125887137E1,-2.868774831E-1,-5.853743484E0,-3.677336143E0,6.918917009E0
1.126886037E1,-3.928446720E-1,-4.704334669E0,-3.687305646E0,5.990101379E0
1.127884937E1,-5.816818536E-1,-3.190318628E0,-3.699569596E0,4.919685145E0
1.128883837E1,-7.359669609E-1,-1.297241045E0,-3.674958665E0,3.966081554E0
1.129882737E1,-5.602893401E-1,1.016866470E0,-3.340054711E0,3.536086401E0
1.130881637E1,-5.673377200E-1,4.413300034E0,-2.948982988E0,5.338126071E0
1.131880538E1,-1.020057588E0,6.570033833E0,-2.451486093E0,7.086299889E0
1.132879438E1,-1.497905061E0,6.908926758E0,-1.849702352E0,7.307420018E0
1.133878338E1,-1.822617026E0,6.733273476E0,-1.504911926E0,7.136081869E0
1.134877238E1,-2.105090167E0,6.162370636E0,-1.109653012E0,6.605872105E0
1.135876237E1,-2.408969965E0,5.686761623E0,-9.006466269E-1,6.241278586E0
1.136875137E1,-2.865122806E0,5.423970795E0,-9.809803534E-1,6.212142169E0
1.137874037E1,-3.339747732E0,5.312369667E0,-1.257377068E0,6.399701828E0
1.138872937E1,-3.728498111E0,5.025139816E0,-1.470097604E0,6.427667952E0
1.139871837E1,-3.876272745E0,4.934505635E0,-1.469115272E0,6.444620698E0
1.140870737E1,-3.818377709E0,5.178066725E0,-1.309113378E0,6.565528248E0
1.141869637E1,-3.765892809E0,5.324971002E0,-1.077693300E0,6.610498292E0
1.142868537E1,-3.302251877E0,5.185313764E0,-4.770577336E-1,6.166030358E0
1.143867438E1,-2.663550279E0,5.263831930E0,1.435690248E-1,5.901104875E0
1.144866338E1,-2.158381544E0,5.960452246E0,5.170024757E-1,6.360258912E0
1.145865238E1,-1.619477299E0,6.556903326E0,8.001645648E-1,6.801172787E0
1.146864138E1,-1.138413784E0,6.471635719E0,1.123630342E0,6.666378325E0
1.147863037E1,-8.010017399E-1,6.091687154E0,1.413732784E0,6.304672597E0
1.148861937E1,-5.530628394E-1,5.367955638E0,1.723994379E0,5.665066889E0
1.149860837E1,-4.262112965E-1,5.005088544E0,2.278495048E0,5.515805208E0
1.150859837E1,-2.305405104E-1,4.702398655E0,3.000755990E0,5.583031305E0
1.151858737E1,9.275642842E-2,4.301219435E0,3.592957313E0,5.605214950E0
1.152857637E1,4.262951309E-1,3.919030218E0,4.018992462E0,5.629638158E0
1.153856537E1,6.828050264E-1,3.609720696E0,4.304116731E0,5.658774340E0
1.154855438E1,9.603511573E-1,3.147430471E0,4.391229719E0,5.487393858E0
1.155854338E1,1.310576790E0,2.271802325E0,4.146154200E0,4.906046471E0
1.156853238E1,1.488227481E0,8.026431996E-1,3.684201944E0,4.053689813E0
1.157852138E1,1.600592693E0,-7.808342546E-1,3.200282868E0,3.662432189E0
1.158851037E1,1.612510342E0,-2.127866095E0,2.848236047E0,3.903902189E0
1.159849937E1,1.638437042E0,-3.110674873E0,2.407451881E0,4.261056051E0
1.160848837E1,1.432992343E0,-3.827858677E0,1.773821865E0,4.455604686E0
1.161847737E1,9.469131593E-1,-4.331336104E0,1.363039763E0,4.638425851E0
1.162846637E1,3.871754310E-1,-4.606145884E0,1.115334166E0,4.755045218E0
1.163845537E1,4.598137099E-2,-5.028165166E0,9.740209973E-1,5.121843040E0
1.164844437E1,4.754436828E-2,-5.613243411E0,9.113108519E-1,5.686936744E0
1.165843438E1,2.546953583E-1,-6.101739103E0,8.827578016E-1,6.170522761E0
1.166842338E1,5.812823061E-1,-6.496116841E0,8.846008439E-1,6.581788647E0
1.167841238E1,9.846539397E-1,-6.738358215E0,8.568532475E-1,6.863615105E0
1.168840138E1,1.328213016E0,-6.758017724E0,7.768775169E-1,6.930980598E0
1.169839037E1,1.486181686E0,-6.817268144E0,6.554003692E-1,7.008097502E0
1.170837937E1,1.483331899E0,-6.932519689E0,5.690007778E-1,7.112233450E0
1.171836837E1,1.389400619E0,-6.900462329E0,5.696872775E-1,7.061965592E0
1.172835737E1,1.215640812E0,-6.591107199E0,7.564648139E-1,6.744828812E0
1.173834637E1,8.580361392E-1,-5.860659571E0,9.327887714E-1,5.996136382E0
1.174833537E1,4.132566075E-1,-4.971440157E0,1.040188674E0,5.095879781E0
1.175832437E1,-1.027435824E-1,-4.288737384E0,9.892471468E-1,4.402548638E0
1.176831337E1,-5.660037874E-1,-3.807032649E0,8.184160638E-1,3.934928555E0
1.177830237E1,-9.312344353E-1,-3.400581579E0,5.978842324E-1,3.576117756E0
1.178829137E1,-1.198941456E0,-2.651494782E0,3.136773555E-1,2.926820575E0
1.179828038E1,-1.364402018E0,-1.514059310E0,6.219683290E-3,2.038138157E0
1.180827037E1,-1.548468712E0,-5.473578572E-2,-2.946996689E-1,1.577212495E0
1.181825838E1,-1.774276048E0,1.424737244E0,-5.616648245E-1,2.343800137E0
1.182824837E1,-1.993517837E0,2.651194235E0,-7.046035194E-1,3.391078053E0
1.183823737E1,-2.258939182E0,4.069160403E0,-6.952498017E-1,4.705767196E0
1.184822637E1,-2.584820444E0,5.262015200E0,-7.419666427E-1,5.909366734E0
1.185821537E1,-2.821558126E0,5.426444167E0,-8.726326898E-1,6.178104431E0
1.186820113E1,-3.115000643E0,5.038802420E0,-1.011206950E0,6.009600514E0
1.187819013E1,-3.196168182E0,4.658673761E0,-1.106312059E0,5.756966097E0
1.188817913E1,-3.020481864E0,5.306166356E0,-1.148761529E0,6.212758255E0
1.189816812E1,-2.692550422E0,5.797627755E0,-1.455631592E0,6.556003256E0
1.190815712E1,-2.377253205E0,5.802903698E0,-1.684563095E0,6.493287068E0
1.191814612E1,-2.320501738E0,6.081313024E0,-1.986218027E0,6.805303701E0
1.192813512E1,-2.115093437E0,5.881869761E0,-2.148993840E0,6.609703976E0
1.193812412E1,-1.681638318E0,4.666044762E0,-2.132322843E0,5.398766698E0
1.194811312E1,-1.119589477E0,3.560715766E0,-2.125857138E0,4.295514630E0
1.195810212E1,-5.633755371E-1,2.752880239E0,-2.187938050E0,3.561293938E0
1.196809112E1,5.060225193E-2,2.143038450E0,-2.184599728E0,3.060661752E0
1.197808012E1,5.969310632E-1,1.819479264E0,-2.042668216E0,2.799879449E0
1.198807013E1,9.503405048E-1,1.724557319E0,-1.759899645E0,2.640926311E0
1.199805913E1,1.257682585E0,2.121753416E0,-1.428850614E0,2.850476648E0
1.200804812E1,1.648465894E0,2.915786591E0,-1.142430675E0,3.538982777E0
1.201803712E1,2.036661372E0,3.736080780E0,-6.649207326E-1,4.306786356E0
1.202802612E1,2.385784293E0,4.486556291E0,5.309973478E-2,5.081729393E0
1.203801512E1,2.736658016E0,4.486232355E0,9.403140648E-1,5.338517433E0
1.204800412E1,2.963544602E0,3.980393822E0,1.987810662E0,5.345794872E0
1.205799312E1,3.065075946E0,3.212499456E0,3.291971303E0,5.527378978E0
1.206798212E1,2.976262296E0,2.363872583E0,4.672249242E0,6.022951421E0
1.207797112E1,2.795447969E0,1.525534471E0,5.565027271E0,6.411810454E0
1.208796012E1,2.622447569E0,7.018828100E-1,5.700475683E0,6.313896874E0
1.209794913E1,2.282194289E0,-4.886301774E-1,4.558269467E0,5.121034150E0
1.210793813E1,1.854913976E0,-1.884838271E0,2.795319915E0,3.848003975E0
1.211792713E1,1.538562652E0,-2.986255479E0,1.345040279E0,3.618567420E0
1.212791613E1,1.278127228E0,-3.948536437E0,4.429108347E-1,4.173813510E0
1.213790512E1,1.118151501E0,-4.710073126E0,-7.513902348E-2,4.841559408E0
1.214789512E1,1.023618981E0,-5.343132454E0,-3.025693633E-1,5.448707044E0
1.215788412E1,8.823378984E-1,-5.783744711E0,-4.417852092E-1,5.867316015E0
1.216787312E1,8.109928042E-1,-5.969425383E0,-5.443213981E-1,6.048804388E0
1.217786212E1,8.013837824E-1,-6.205521918E0,-5.685768547E-1,6.282833587E0
1.218785112E1,8.363339060E-1,-6.412420966E0,-5.844403873E-1,6.493086139E0
1.219784012E1,8.998606150E-1,-6.504806973E0,-6.232488692E-1,6.596264249E0
1.220782912E1,1.032322854E0,-6.666443895E0,-7.571892840E-1,6.788261949E0
1.221781813E1,1.138885874E0,-6.879676062E0,-9.674346936E-1,7.040094718E0
1.222780713E1,1.252424184E0,-6.956406149E0,-1.126627479E0,7.157474577E0
1.223779613E1,1.313096355E0,-6.944874855E0,-1.326825033E0,7.191381888E0
1.224778513E1,1.289093535E0,-6.713138005E0,-1.663441637E0,7.035269866E0
1.225777412E1,1.125855208E0,-6.374778931E0,-2.110647799E0,6.808831801E0
1.226776312E1,8.070323389E-1,-6.131462839E0,-2.679754375E0,6.739971903E0
1.227775212E1,4.289303248E-1,-5.746944675E0,-3.224000344E0,6.603448534E0
1.228774112E1,1.652823312E-2,-5.270644521E0,-3.581127811E0,6.372161584E0
1.229773012E1,-3.365421979E-1,-4.601283340E0,-3.516098002E0,5.800690837E0
1.230771912E1,-6.450999872E-1,-3.457497207E0,-3.380163102E0,4.878108601E0
1.231770812E1,-8.149205252E-1,-2.008025656E0,-3.306699854E0,3.953546057E0
1.232769813E1,-9.169347771E-1,-3.863834256E-1,-3.248919423E0,3.397872710E0
1.233768713E1,-8.039770956E-1,1.343072691E0,-2.868494310E0,3.267794827E0
1.234767613E1,-7.547304567E-1,3.442300293E0,-2.387184262E0,4.256488937E0
1.235766513E1,-8.260762087E-1,5.004878045E0,-2.171127305E0,5.517698788E0
1.236765412E1,-9.505947856E-1,5.690550619E0,-1.986914284E0,6.101952570E0
1.237764312E1,-1.267351979E0,6.481042719E0,-1.519298415E0,6.776308984E0
1.238763212E1,-1.610532229E0,6.360665506E0,-1.380589596E0,6.705065799E0
1.239762112E1,-1.945719627E0,5.996176980E0,-1.511408182E0,6.482616596E0
1.240761012E1,-2.337058568E0,5.946765668E0,-1.856162356E0,6.653660899E0
1.241759912E1,-2.824048455E0,5.969056424E0,-2.189030310E0,6.956776406E0
1.242758812E1,-3.378642534E0,5.871559365E0,-2.369050877E0,7.176547694E0
1.243757712E1,-3.793838407E0,5.634336072E0,-2.302877938E0,7.172321774E0
1.244756612E1,-3.956564080E0,5.792816666E0,-2.058390795E0,7.310820536E0
1.245755512E1,-3.939999210E0,5.434995720E0,-1.610137395E0,6.903282892E0
1.246754413E1,-3.559957967E0,4.217012513E0,-1.069890703E0,5.621491028E0
1.247753313E1,-2.956891640E0,3.363121392E0,-4.770965445E-1,4.503489178E0
1.248752213E1,-2.542977184E0,3.671321113E0,1.113216305E-1,4.467406874E0
1.249751113E1,-2.049136991E0,4.355250047E0,5.809243834E-1,4.848158260E0
1.250750112E1,-1.496709013E0,4.540206249E0,1.040791522E0,4.892530802E0
1.251749012E1,-1.084000619E0,4.639510682E0,1.500845918E0,4.995263274E0
1.252747912E1,-7.396876904E-1,4.772162955E0,2.021157918E0,5.235050762E0
1.253746812E1,-3.832437631E-1,4.736293795E0,2.515402007E0,5.376486023E0
1.254745712E1,-2.352009606E-2,4.522208519E0,3.005149587E0,5.429718881E0
1.255744612E1,3.023821063E-1,4.319736398E0,3.472675409E0,5.550768594E0
1.256743512E1,6.342341063E-1,3.984877467E0,3.745419953E0,5.505422050E0
1.257742413E1,9.495017948E-1,3.604588010E0,3.916332897E0,5.406687686E0
1.258741313E1,1.179528847E0,3.090348782E0,3.911449302E0,5.122595001E0
1.259740213E1,1.322180589E0,2.278855821E0,3.777044034E0,4.605150052E0
1.260739113E1,1.514755421E0,1.164126257E0,3.538119786E0,4.020940878E0
1.261738012E1,1.707152936E0,-6.802065969E-3,3.298139530E0,3.713777292E0
1.262736912E1,1.843433845E0,-1.084598862E0,3.046589974E0,3.722406950E0
1.263735812E1,1.929237641E0,-2.068273612E0,2.672280464E0,3.891117640E0
1.264734712E1,1.902169711E0,-2.882000209E0,2.168685508E0,4.077667427E0
1.265733612E1,1.675490994E0,-3.454306381E0,1.636305878E0,4.173367893E0
1.266732512E1,1.305387240E0,-3.872578182E0,1.225739026E0,4.266536509E0
1.267731412E1,9.641290433E-1,-4.213239890E0,8.956953509E-1,4.413978403E0
1.268730312E1,7.937338702E-1,-4.416348773E0,6.925220755E-1,4.540235320E0
1.269729313E1,6.866540292E-1,-4.632360122E0,5.501611586E-1,4.715180946E0
1.270728213E1,6.022603617E-1,-4.846578130E0,4.158785355E-1,4.901529564E0
1.271727113E1,5.359465043E-1,-5.062270805E0,2.482083841E-1,5.096609830E0
1.272726012E1,4.603565508E-1,-5.185511400E0,1.460775534E-1,5.207955000E0
1.273724912E1,4.024478466E-1,-5.318605138E0,6.034564096E-2,5.334150962E0
1.274723812E1,3.378255521E-1,-5.498939116E0,-3.745485149E-2,5.509433761E0
1.275722712E1,3.029321100E-1,-5.725022294E0,-1.385918748E-1,5.734706256E0
1.276721612E1,2.589556396E-1,-5.893477069E0,-2.019032236E-1,5.902617631E0
1.277720512E1,2.270951665E-1,-5.989514662E0,-2.548029288E-1,5.999231837E0
1.278719412E1,1.377322610E-1,-6.010031372E0,-3.341520023E-1,6.020889040E0
1.279718312E1,5.943645375E-2,-5.931538349E0,-4.254913580E-1,5.947076826E0
1.280717212E1,-2.150266048E-2,-5.752547477E0,-5.018092167E-1,5.774433074E0
1.281716112E1,-2.902780775E-2,-5.409749781E0,-5.685434890E-1,5.439621036E0
1.282715013E1,-7.784133246E-2,-4.912240607E0,-5.640610135E-1,4.945132140E0
1.283713913E1,-1.616481588E-1,-4.134229973E0,-6.103738850E-1,4.182169757E0
1.284712813E1,-2.677254581E-1,-2.927769874E0,-6.960449499E-1,3.021256681E0
1.285711713E1,-3.742468717E-1,-1.318654718E0,-7.293506902E-1,1.552695533E0
1.286710612E1,-4.876730978E-1,5.581904089E-1,-7.303803849E-1,1.040604195E0
1.287709575E1,-6.572802490E-1,2.372217729E0,-6.949433345E-1,2.557807756E0
1.288708475E1,-8.149289306E-1,4.107081351E0,-5.979157343E-1,4.229625233E0
1.289707475E1,-1.124588555E0,6.002582020E0,-4.881927326E-1,6.126501650E0
1.290706375E1,-1.510753294E0,7.227905236E0,-3.908601270E-1,7.394441240E0
1.291705275E1,-1.868906947E0,7.402865038E0,-4.794558229E-1,7.650170053E0
1.292704175E1,-2.224258615E0,6.411906411E0,-6.737256161E-1,6.820100909E0
1.293703075E1,-2.551374078E0,5.836465546E0,-7.682953392E-1,6.415926861E0
1.294701975E1,-2.837976230E0,6.065388717E0,-7.926152247E-1,6.743240190E0
1.295700875E1,-3.168533657E0,6.086196034E0,-9.774087279E-1,6.930852438E0
1.296699775E1,-3.244980154E0,5.752462108E0,-1.433324903E0,6.758338315E0
1.297698675E1,-3.217310252E0,5.327353742E0,-1.857747536E0,6.494844807E0
1.298697575E1,-2.964067343E0,4.576192353E0,-2.070183898E0,5.832057358E0
1.299696475E1,-2.384804446E0,3.475575044E0,-2.285102987E0,4.794643864E0
1.300695375E1,-1.419920454E0,2.420421590E0,-2.702125238E0,3.895650853E0
1.301694275E1,-6.204137736E-1,1.592327215E0,-2.974906619E0,3.430814568E0
1.302693175E1,-5.126734531E-2,8.992783785E-1,-2.906813453E0,3.043171766E0
1.303692075E1,4.912294475E-1,7.702654123E-1,-2.744878324E0,2.892917591E0
1.304690975E1,9.712721481E-1,1.191820425E0,-2.462591709E0,2.903129938E0
1.305689875E1,1.527411573E0,2.199165874E0,-1.925222651E0,3.297847617E0
1.306688775E1,2.232133937E0,3.494792503E0,-9.532311489E-1,4.254955484E0
1.307687675E1,2.829424677E0,4.472006664E0,2.029977858E-1,5.295818701E0
1.308686575E1,3.473956534E0,5.078234289E0,1.777685121E0,6.404451724E0
1.309685475E1,4.038444979E0,5.175311517E0,4.032483743E0,7.704142541E0
1.310684475E1,4.412353370E0,4.683685226E0,6.410771466E0,9.083158061E0
1.311683375E1,4.540120295E0,3.250971211E0,8.110744168E0,9.847115164E0
1.312682275E1,4.447637808E0,1.379945233E0,8.130929341E0,9.370044977E0
1.313681175E1,4.060103651E0,-1.547284359E-1,6.006357567E0,7.251531822E0
1.314680075E1,3.498600794E0,-1.392445410E0,3.194280701E0,4.937868056E0
1.315678975E1,3.002443788E0,-2.452175480E0,1.134474369E0,4.039166421E0
1.316677875E1,2.481149603E0,-3.295218261E0,-1.012241469E-1,4.126113555E0
1.317676775E1,2.002430602E0,-4.163754904E0,-6.412939614E-1,4.664530111E0
1.318675675E1,1.744237585E0,-4.854859541E0,-8.230943479E-1,5.223936277E0
1.319674575E1,1.650713125E0,-5.249889244E0,-9.541498196E-1,5.585391014E0
1.320673475E1,1.572352688E0,-5.620730771E0,-1.107686008E0,5.940696564E0
1.321672375E1,1.485477243E0,-6.059545594E0,-1.215271926E0,6.356226971E0
1.322671275E1,1.306956925E0,-6.378521733E0,-1.247379498E0,6.629451826E0
1.323670175E1,1.224551018E0,-6.495238590E0,-1.282236067E0,6.732887855E0
1.324669075E1,1.210824460E0,-6.456475058E0,-1.319971511E0,6.700335129E0
1.325667975E1,1.185203204E0,-6.462159137E0,-1.452874045E0,6.728673742E0
1.326666875E1,1.122065115E0,-6.470644031E0,-1.607026531E0,6.760976155E0
1.327665775E1,1.004584540E0,-6.422719082E0,-1.795147246E0,6.744113295E0
1.328664675E1,8.194601572E-1,-6.295766675E0,-2.044573093E0,6.669967924E0
1.329663575E1,5.152428658E-1,-6.021026477E0,-2.290491781E0,6.462552719E0
1.330662475E1,1.142194375E-1,-5.637659045E0,-2.469007275E0,6.155667511E0
1.331661475E1,-3.182430076E-1,-5.133826692E0,-2.542421406E0,5.737713980E0
1.332660375E1,-7.613535248E-1,-4.531435425E0,-2.595158029E0,5.277159406E0
1.333659275E1,-1.168778156E0,-3.858049021E0,-2.705675667E0,4.855024762E0
1.334658175E1,-1.477675303E0,-3.264775318E0,-2.829485196E0,4.565990435E0
1.335657075E1,-1.755572998E0,-2.573543211E0,-2.886497303E0,4.247002224E0
1.336655975E1,-1.936091748E0,-1.848862692E0,-2.849532959E0,3.909805954E0
1.337654875E1,-2.057997131E0,-9.130842394E-1,-2.726059645E0,3.535601251E0
1.338653775E1,-2.026371734E0,1.064269263E-1,-2.555482916E0,3.263127645E0
1.339652675E1,-1.903460045E0,1.269867890E0,-2.320271650E0,3.258739807E0
1.340651575E1,-1.841222428E0,2.708248442E0,-2.126608944E0,3.904763149E0
1.341650475E1,-1.723995694E0,4.140416327E0,-1.932208904E0,4.883506912E0
1.342649375E1,-1.706588826E0,5.201660825E0,-1.672769115E0,5.724323302E0
1.343648275E1,-1.726981867E0,5.495862896E0,-1.389682601E0,5.926060502E0
1.344647175E1,-1.584909730E0,5.426711969E0,-1.181368527E0,5.775532291E0
1.345646075E1,-1.726964326E0,5.461351460E0,-1.340399929E0,5.882638653E0
1.346644975E1,-2.089191442E0,5.612360482E0,-1.586565369E0,6.195199813E0
1.347643875E1,-2.564982595E0,5.456868399E0,-1.739725581E0,6.275603042E0
1.348642775E1,-3.131630709E0,5.344221790E0,-1.856171127E0,6.466311831E0
1.349641675E1,-3.414740612E0,6.021550387E0,-1.676706630E0,7.122560469E0
1.350640575E1,-3.277530142E0,6.146659752E0,-1.377523901E0,7.100788832E0
1.351639475E1,-2.622635264E0,5.158146431E0,-9.586077368E-1,5.865459839E0
1.352638375E1,-1.549477796E0,3.586805457E0,-6.838131595E-1,3.966567189E0
1.353637275E1,-5.066791434E-1,2.986206363E0,-5.457147896E-1,3.077654436E0
1.354636175E1,8.539785370E-3,3.725620111E0,-2.546637833E-1,3.734323471E0
1.355635175E1,4.126967731E-1,4.614810873E0,1.632987364E-1,4.636104453E0
1.356634075E1,9.128928892E-1,5.123023961E0,6.083980743E-1,5.239169414E0
1.357632975E1,1.394203522E0,5.173902338E0,9.914550555E-1,5.449408408E0
1.358631875E1,1.851000873E0,5.030846114E0,1.380715896E0,5.535521045E0
1.359630775E1,2.205487006E0,4.821053279E0,1.872483104E0,5.622536850E0
1.360629675E1,2.454407946E0,4.647279292E0,2.564511602E0,5.847909280E0
1.361628575E1,2.609769928E0,4.447259493E0,3.401011934E0,6.177046079E0
1.362627475E1,2.665869577E0,3.836551732E0,4.151430727E0,6.249829348E0
1.363626375E1,2.545984407E0,2.824806839E0,4.579883115E0,5.952890023E0
1.364625275E1,2.208059342E0,1.572567719E0,4.498937770E0,5.252517144E0
1.365624175E1,1.720159336E0,3.431841964E-1,4.180990741E0,4.534027692E0
1.366623075E1,1.164439668E0,-7.399698186E-1,3.774611592E0,4.018851546E0
1.367621975E1,6.836848862E-1,-1.598877851E0,3.238006765E0,3.675394294E0
1.368620875E1,3.118501737E-1,-2.414564434E0,2.673320099E0,3.615800367E0
1.369619775E1,1.662966404E-2,-3.148602253E0,2.250684521E0,3.870342815E0
1.370618675E1,-2.679939367E-1,-3.766269954E0,1.920107507E0,4.235967771E0
1.371617575E1,-5.493681665E-1,-4.249790250E0,1.592393289E0,4.571459169E0
1.372616475E1,-7.705862783E-1,-4.581500455E0,1.314062315E0,4.828116548E0
1.373615375E1,-9.348520345E-1,-4.903374474E0,1.051089712E0,5.101158608E0
1.374614275E1,-1.014884045E0,-5.228068605E0,8.605055646E-1,5.394734543E0
1.375613175E1,-1.031729654E0,-5.520155153E0,7.109138346E-1,5.660563353E0
1.376612075E1,-9.952469748E-1,-5.754225043E0,6.078543198E-1,5.871210204E0
1.377610975E1,-8.633475307E-1,-5.982140738E0,4.773468784E-1,6.062939618E0
1.378609875E1,-8.140066785E-1,-6.133261442E0,3.483268225E-1,6.196840676E0
1.379608775E1,-8.160612439E-1,-6.207718717E0,2.727878129E-1,6.267067960E0
1.380607775E1,-8.045448603E-1,-6.170629243E0,2.654846406E-1,6.228518266E0
1.381606675E1,-7.324311496E-1,-6.031265536E0,2.335436038E-1,6.080062662E0
1.382605575E1,-7.064617646E-1,-5.814279456E0,1.758327548E-1,5.859680109E0
1.383604475E1,-7.573891126E-1,-5.518353041E0,1.164577882E-1,5.571303346E0
1.384603375E1,-8.219537754E-1,-5.109767738E0,7.090335527E-2,5.175940652E0
1.385602275E1,-8.965085524E-1,-4.494713742E0,2.074601250E-3,4.583250321E0
1.386601175E1,-9.790077221E-1,-3.725403764E0,-7.382811427E-2,3.852601708E0
1.387600112E1,-1.072911082E0,-2.967595845E0,-1.300210261E-1,3.158269899E0
1.388599012E1,-1.183834151E0,-2.143183461E0,-2.095332005E-1,2.457356875E0
1.389597912E1,-1.261894334E0,-1.046569741E0,-3.154169387E-1,1.669482967E0
1.390596813E1,-1.316274902E0,2.855984777E-1,-3.800094124E-1,1.399483212E0
1.391595713E1,-1.365773629E0,1.674151397E0,-3.927551730E-1,2.195991150E0
1.392594613E1,-1.408433160E0,2.760062374E0,-4.537007018E-1,3.131688458E0
1.393593513E1,-1.471571833E0,3.756896283E0,-4.194546926E-1,4.056566970E0
1.394592412E1,-1.735999443E0,4.866856858E0,-3.976042324E-1,5.182478063E0
1.395591312E1,-2.130427322E0,5.813412314E0,-6.677087581E-1,6.227384547E0
1.396590212E1,-2.615759816E0,5.627663814E0,-1.013738283E0,6.288120922E0
1.397589112E1,-3.087713442E0,5.069853474E0,-1.239046193E0,6.064043537E0
1.398588012E1,-3.363553209E0,5.232480329E0,-1.241069768E0,6.342916896E0
1.399586912E1,-3.496855985E0,5.390253410E0,-1.142213817E0,6.525908826E0
1.400585812E1,-3.435168737E0,5.565781562E0,-1.050014409E0,6.624261385E0
1.401584712E1,-3.196766937E0,5.712684084E0,-9.640819001E-1,6.616912589E0
1.402583612E1,-2.507235786E0,5.287923043E0,-7.928006545E-1,5.905666285E0
1.403582512E1,-1.531934833E0,4.200715739E0,-7.867415504E-1,4.540021951E0
1.404581413E1,-8.577910678E-1,3.172657113E0,-7.625317387E-1,3.373872156E0
1.405580313E1,-2.100219729E-1,2.302576221E0,-7.663811070E-1,2.435837943E0
1.406579213E1,4.218947357E-1,1.823448354E0,-9.241210051E-1,2.087332915E0
1.407578212E1,8.905985523E-1,1.645802341E0,-1.148908294E0,2.195864612E0
1.408577112E1,1.285071674E0,1.587918414E0,-1.278512414E0,2.409873044E0
1.409576012E1,1.676951336E0,1.847154136E0,-1.227469144E0,2.780436060E0
1.410574912E1,2.067997331E0,2.324076433E0,-1.027511399E0,3.276236241E0
1.411573812E1,2.436199425E0,2.999736820E0,-5.195724732E-1,3.899159420E0
1.412572712E1,2.818719595E0,3.453420528E0,3.202613568E-1,4.469212552E0
1.413571612E1,3.193884260E0,3.629736884E0,1.639432969E0,5.105254839E0
1.414570512E1,3.425498904E0,3.489277409E0,3.235591280E0,5.863288370E0
1.415569413E1,3.474406770E0,2.883447980E0,4.668124616E0,6.494394667E0
1.416568313E1,3.383088464E0,2.116175172E0,5.353969098E0,6.677459848E0
1.417567213E1,3.222428905E0,1.216756461E0,5.224129921E0,6.257481743E0
1.418566113E1,3.007662136E0,1.034343213E-1,4.298737877E0,5.247463913E0
1.419565012E1,2.593804398E0,-9.768797010E-1,2.760080500E0,3.911541841E0
1.420563912E1,2.171276555E0,-2.042576854E0,1.463769747E0,3.321021523E0
1.421562812E1,1.734326555E0,-3.320178271E0,4.526195151E-1,3.773107045E0
1.422561712E1,1.358081763E0,-4.306857321E0,-2.043578482E-1,4.520527423E0
1.423560612E1,1.124897214E0,-4.851892079E0,-5.099683484E-1,5.006627428E0
1.424559512E1,9.766359452E-1,-5.246506630E0,-7.864404919E-1,5.394269018E0
1.425558412E1,9.197512347E-1,-5.450901901E0,-9.442469752E-1,5.608018921E0
1.426557312E1,9.551406303E-1,-5.756727067E0,-1.081822019E0,5.934857962E0
1.427556212E1,9.575200085E-1,-5.963971685E0,-1.267862880E0,6.171975300E0
1.428555112E1,9.268268772E-1,-5.941153511E0,-1.435242936E0,6.181928128E0
1.429554013E1,8.509470481E-1,-5.721872984E0,-1.511639147E0,5.979046264E0
1.430552913E1,8.214168549E-1,-5.470333952E0,-1.663120624E0,5.776266044E0
1.431551813E1,7.769073377E-1,-5.278530076E0,-2.089003746E0,5.729781970E0
1.432550713E1,6.421998413E-1,-5.286110407E0,-2.705685022E0,5.972948628E0
1.433549612E1,4.059065843E-1,-5.388244307E0,-3.244239312E0,6.302620533E0
1.434548512E1,9.047272526E-2,-5.415268968E0,-3.691047864E0,6.554171011E0
1.435547412E1,-3.362984421E-1,-5.356404464E0,-4.091879759E0,6.748899569E0
1.436546312E1,-7.646216798E-1,-5.070123031E0,-4.298350207E0,6.690785332E0
1.437545312E1,-1.051254603E0,-4.788700635E0,-3.968448545E0,6.307564813E0
1.438544212E1,-1.166895426E0,-4.445952056E0,-3.461624756E0,5.754214158E0
1.439543112E1,-1.137927661E0,-3.987816278E0,-3.012359789E0,5.125609186E0
1.440542013E1,-9.983484842E-1,-3.594828422E0,-2.565312086E0,4.527727595E0
1.441540913E1,-8.618665771E-1,-3.067328879E0,-2.210241085E0,3.877690820E0
1.442539813E1,-8.771383350E-1,-2.185713769E0,-2.075065738E0,3.138887407E0
1.443538713E1,-8.154452397E-1,-1.020767148E0,-2.183531004E0,2.544547927E0
1.444537612E1,-7.432422128E-1,3.825862437E-1,-2.309899859E0,2.456505359E0
1.445536512E1,-6.694700857E-1,2.395478538E0,-2.293021286E0,3.382965303E0
1.446535412E1,-5.308212736E-1,5.173161496E0,-2.103674410E0,5.609707400E0
1.447534312E1,-6.320665435E-1,7.113596263E0,-1.904097245E0,7.391099122E0
1.448533212E1,-8.197292753E-1,6.914378702E0,-1.678573061E0,7.162275926E0
1.449532112E1,-7.276430109E-1,6.395278684E0,-1.168242112E0,6.541700347E0
1.450531012E1,-6.972456756E-1,7.013596596E0,-5.243472729E-1,7.067646624E0
1.451529912E1,-9.005602343E-1,8.199204939E0,-3.540196717E-2,8.248589193E0
1.452528812E1,-1.213999425E0,8.824590966E0,3.162396419E-1,8.913316320E0
1.453527712E1,-1.379040376E0,7.784319261E0,7.493651247E-1,7.940965105E0
1.454526613E1,-1.447410553E0,6.254324534E0,8.316705322E-1,6.473271859E0
1.455525513E1,-1.673276946E0,3.246118022E0,3.168430380E-1,3.665723320E0
1.456524413E1,-2.347848873E0,1.229247867E0,-1.241714716E0,2.926653394E0
1.457523313E1,-2.917048420E0,1.947201165E0,-2.811552955E0,4.495063279E0
1.458522212E1,-3.328942078E0,3.033092846E0,-3.273350844E0,5.567435076E0
1.459521112E1,-3.335393603E0,3.167564773E0,-2.525776137E0,5.247653016E0
1.460520012E1,-2.650212488E0,3.204373580E0,-7.881952413E-1,4.232361989E0
1.461518912E1,-1.744919955E0,3.983248433E0,8.869080091E-1,4.438200034E0
1.462517812E1,-8.416764338E-1,4.892000470E0,2.318152034E0,5.478495840E0
1.463516712E1,5.891504657E-2,5.716167271E0,3.366707489E0,6.634211224E0
1.464515612E1,9.141133493E-1,5.828239684E0,3.963445083E0,7.107241233E0
1.465514512E1,1.769874995E0,5.398288654E0,4.297195966E0,7.123192477E0
1.466513412E1,2.543742000E0,4.847231848E0,4.359714396E0,6.998098997E0
1.467512313E1,2.965391737E0,3.742528505E0,4.254864464E0,6.395618763E0
1.468511213E1,3.227817991E0,2.271661407E0,4.221414882E0,5.779238543E0
1.469510113E1,3.261586539E0,9.389640158E-1,4.220141358E0,5.415643384E0
1.470509013E1,3.154587463E0,-2.511583775E-1,4.136263050E0,5.207991418E0
1.471508012E1,2.772535362E0,-1.428881750E0,3.891804997E0,4.987464438E0
1.472506912E1,2.075732028E0,-2.347795079E0,3.452051110E0,4.662345124E0
1.473505812E1,1.267315580E0,-2.818539793E0,2.798237675E0,4.168979423E0
1.474504712E1,4.903993987E-1,-3.106689411E0,2.173021803E0,3.822830682E0
1.475503612E1,-1.942195985E-1,-3.333661950E0,1.678201178E0,3.737296141E0
1.476502512E1,-7.387963555E-1,-3.556239138E0,1.373505110E0,3.883191103E0
1.477501412E1,-1.180258360E0,-3.860841651E0,1.162545755E0,4.201264177E0
1.478500313E1,-1.558584980E0,-4.085664754E0,1.010112351E0,4.488002962E0
1.479499213E1,-1.838117118E0,-4.227131120E0,9.142473236E-1,4.699272307E0
1.480498113E1,-1.921156205E0,-4.426167417E0,8.410810411E-1,4.897878774E0
1.481497013E1,-1.933168724E0,-4.708789077E0,6.886020291E-1,5.136536639E0
1.482495913E1,-1.865021473E0,-4.926365726E0,5.366516785E-1,5.294844604E0
1.483494812E1,-1.790470350E0,-5.130313684E0,4.305714190E-1,5.450806759E0
1.484493712E1,-1.664739572E0,-5.230290547E0,2.389242665E-1,5.494031476E0
1.485492612E1,-1.460477180E0,-5.145171459E0,-4.836349010E-2,5.348656090E0
1.486491512E1,-1.293585220E0,-5.360564758E0,-2.975870240E-1,5.522460980E0
1.487490317E1,-1.168527895E0,-5.538272166E0,-4.538912845E-1,5.678374180E0
1.488489217E1,-1.059131826E0,-5.530287209E0,-5.703450161E-1,5.659605134E0
1.489488117E1,-1.000307813E0,-5.358808839E0,-5.819996864E-1,5.482350912E0
1.490487017E1,-9.223125344E-1,-5.018110878E0,-5.007737114E-1,5.126682310E0
1.491485917E1,-8.568851148E-1,-4.584593632E0,-4.503362139E-1,4.685675360E0
1.492484817E1,-7.973014757E-1,-3.937945960E0,-4.408163621E-1,4.041958324E0
1.493483717E1,-7.589163322E-1,-3.012456268E0,-4.443136183E-1,3.138193964E0
1.494482617E1,-7.569419467E-1,-1.828659393E0,-4.541490736E-1,2.030568311E0
1.495481517E1,-7.088143187E-1,-5.026219797E-1,-3.741375288E-1,9.460578647E-1
1.496480417E1,-6.410560528E-1,9.619195998E-1,-2.553050767E-1,1.183817073E0
1.497479317E1,-5.492297702E-1,2.548141152E0,-1.109906781E-1,2.609021963E0
1.498478217E1,-5.520591648E-1,4.069738693E0,3.172348380E-2,4.107133882E0
1.499477117E1,-8.091637952E-1,5.210868436E0,1.144950606E-1,5.274562069E0
1.500476017E1,-1.453950810E0,5.511260369E0,9.187949225E-2,5.700561872E0
1.501474917E1,-2.127537482E0,5.227888511E0,-4.834784880E-2,5.644428362E0
1.502473817E1,-2.703051144E0,5.197305234E0,-1.941721447E-1,5.861413653E0
1.503472717E1,-3.149497754E0,5.886897197E0,-3.942413525E-1,6.688073037E0
1.504471617E1,-3.569111198E0,6.657478943E0,-7.530165647E-1,7.591285436E0
1.505470517E1,-3.886741016E0,6.974471707E0,-1.207849397E0,8.075203494E0
1.506469417E1,-3.776400548E0,6.296420394E0,-1.654849738E0,7.526263251E0
1.507468317E1,-3.154519927E0,4.885520001E0,-2.132304717E0,6.194031406E0
1.508467217E1,-2.245871678E0,3.857339754E0,-2.228538777E0,4.988927204E0
1.509466217E1,-1.330250039E0,3.279667007E0,-2.084784249E0,4.107566945E0
1.510465117E1,-4.091149515E-1,2.493590723E0,-1.847195797E0,3.130096173E0
1.511464017E1,2.706537985E-1,1.885696642E0,-1.628511978E0,2.506223567E0
1.512462917E1,8.746959530E-1,1.608971899E0,-1.372040382E0,2.288313438E0
1.513461817E1,1.397759945E0,1.716655977E0,-9.695531398E-1,2.416748621E0
1.514460717E1,1.817522201E0,2.290606971E0,-2.104483080E-1,2.931647273E0
1.515459617E1,2.232521754E0,3.219774562E0,1.120462759E0,4.075112072E0
1.516458517E1,2.675687052E0,4.340203407E0,3.474253573E0,6.169854512E0
1.517457417E1,3.002689664E0,4.883165327E0,5.696341701E0,8.081445267E0
1.518456317E1,3.207406531E0,4.602163931E0,7.238816725E0,9.157938473E0
1.519455217E1,3.158954748E0,3.523670146E0,7.836240782E0,9.154338643E0
1.520454117E1,2.992043638E0,2.312976079E0,6.959848405E0,7.920964165E0
1.521453017E1,2.834090463E0,1.135394794E0,4.982964435E0,5.843896358E0
1.522451917E1,2.785109214E0,-1.840639168E-1,3.076595546E0,4.154052601E0
1.523450817E1,2.829071505E0,-1.438954164E0,1.728955010E0,3.614349194E0
1.524449717E1,2.906177861E0,-2.471373058E0,9.220334029E-1,3.924754788E0
1.525448617E1,3.011719519E0,-3.403959516E0,4.421530356E-1,4.566496923E0
1.526447517E1,2.936078768E0,-4.149857242E0,6.855209850E-2,5.083952502E0
1.527446417E1,2.788305595E0,-4.596672226E0,-2.057459772E-1,5.380183551E0
1.528445317E1,2.576479975E0,-5.004250054E0,-4.525166041E-1,5.646728162E0
1.529444217E1,2.256822051E0,-5.186989576E0,-7.414901678E-1,5.705077940E0
1.530443117E1,1.895077184E0,-5.334846364E0,-9.945343454E-1,5.748130290E0
1.531442017E1,1.497174890E0,-5.405600013E0,-1.150105877E0,5.725800178E0
1.532440917E1,1.066411536E0,-5.371100855E0,-1.293875388E0,5.626728311E0
1.533439817E1,5.608329119E-1,-5.169226320E0,-1.418999956E0,5.389711975E0
1.534438717E1,1.123084578E-1,-4.807646783E0,-1.538888342E0,5.049183905E0
1.535437617E1,-3.917641065E-1,-4.613927944E0,-1.773916590E0,4.958688360E0
1.536436517E1,-7.245147505E-1,-4.392230178E0,-1.869496931E0,4.828211505E0
1.537435417E1,-8.317387985E-1,-4.123554127E0,-1.870968091E0,4.603912430E0
1.538434317E1,-7.961588567E-1,-3.894124587E0,-1.959795483E0,4.431576871E0
1.539433217E1,-7.329158838E-1,-3.953970255E0,-2.250210897E0,4.608090228E0
1.540432117E1,-6.791000113E-1,-4.490509593E0,-2.535483685E0,5.201397000E0
1.541431017E1,-6.112766951E-1,-5.106938270E0,-2.645012559E0,5.783646698E0
1.542429917E1,-2.688592149E-1,-5.269745219E0,-2.789491995E0,5.968564781E0
1.543428817E1,1.432089825E-1,-4.977159319E0,-2.913759361E0,5.769108884E0
1.544427717E1,4.192789838E-1,-4.245421211E0,-2.640904890E0,5.017347383E0
1.545426617E1,5.141670877E-1,-3.289332454E0,-2.304647890E0,4.049132955E0
1.546425517E1,5.197523481E-1,-2.277693980E0,-2.159232314E0,3.181244498E0
1.547424417E1,4.198020903E-1,-1.301072726E0,-2.077727391E0,2.487162066E0
1.548423317E1,3.451374587E-1,-2.200810111E-1,-1.979978317E0,2.021848079E0
1.549422217E1,3.465806247E-1,9.890717304E-1,-1.865791551E0,2.139990451E0
1.550421117E1,3.328814755E-1,1.996059330E0,-1.841753063E0,2.736259722E0
1.551420017E1,3.211867518E-1,2.625775804E0,-2.040582953E0,3.340933745E0
1.552418917E1,2.421207748E-1,2.996326724E0,-2.404483835E0,3.849433571E0
1.553417817E1,1.316741071E-1,3.304416516E0,-2.794593691E0,4.329695195E0
1.554416717E1,-1.549024636E-1,3.674137716E0,-3.008029926E0,4.750950091E0
1.555415717E1,-7.925643539E-1,4.202444760E0,-2.424048618E0,4.915761581E0
1.556414617E1,-1.468066281E0,4.299528421E0,-1.016378227E0,4.655554526E0
1.557413517E1,-1.949780810E0,4.484786339E0,3.811273269E-1,4.905120972E0
1.558412417E1,-2.058554078E0,5.620987464E0,1.032418894E0,6.074457485E0
1.559411317E1,-2.060384549E0,6.008164941E0,1.019783061E0,6.432976600E0
1.560410217E1,-2.391246323E0,5.023990254E0,7.236759675E-1,5.610904023E0
1.561409117E1,-2.641946571E0,3.293478715E0,2.048104227E-1,4.227154012E0
1.562408017E1,-2.576443430E0,2.115840712E0,-4.291850442E-1,3.361404835E0
1.563406917E1,-2.429753162E0,2.413050005E0,-4.826923299E-1,3.458251385E0
1.564405817E1,-2.302822681E0,3.490217641E0,5.470538020E-2,4.181818284E0
1.565404717E1,-1.970857245E0,4.483599939E0,8.838627791E-1,4.976762010E0
1.566403617E1,-1.382716521E0,5.734055073E0,1.828262951E0,6.175260154E0
1.567402517E1,-6.314117284E-1,6.766375734E0,2.710923543E0,7.316531131E0
1.568401417E1,2.251249655E-1,7.092065645E0,3.547810961E0,7.933160718E0
1.569400317E1,1.133014685E0,7.019002932E0,4.288615762E0,8.303152991E0
1.570399217E1,1.999560788E0,6.702238210E0,4.878737816E0,8.527621183E0
1.571398117E1,2.714339194E0,6.051010998E0,5.283745208E0,8.479406511E0
1.572397017E1,3.070260088E0,4.742760231E0,5.223218340E0,7.694301881E0
1.573395917E1,2.833008143E0,2.878456212E0,4.713168057E0,6.206883150E0
1.574394817E1,2.138428798E0,1.186815793E0,3.900809709E0,4.604098808E0
1.575393717E1,1.385492048E0,7.710957170E-2,3.249111797E0,3.533024422E0
1.576392617E1,6.537781323E-1,-6.747067058E-1,2.866860598E0,3.016876642E0
1.577391517E1,-9.716712023E-2,-1.314337134E0,2.730109427E0,3.031570721E0
1.578390417E1,-7.735913086E-1,-1.870263501E0,2.695465844E0,3.370736595E0
1.579389317E1,-1.422214170E0,-2.285428092E0,2.700003283E0,3.812596548E0
1.580388217E1,-2.038929507E0,-2.486144294E0,2.867748206E0,4.308378669E0
1.581387117E1,-2.568529809E0,-2.739336918E0,3.073482488E0,4.852587633E0
1.582386017E1,-3.008820469E0,-3.008933905E0,3.341793673E0,5.410570101E0
1.583384917E1,-3.417368351E0,-3.136299126E0,3.551001202E0,5.841608356E0
1.584383817E1,-3.690223407E0,-3.409626052E0,3.486184816E0,6.115290932E0
1.585382717E1,-3.858141407E0,-3.852539774E0,3.288814391E0,6.367387056E0
1.586381617E1,-4.025596892E0,-4.266924346E0,3.073010033E0,6.622345837E0
1.587380488E1,-4.086046577E0,-4.750109596E0,2.950114424E0,6.925495861E0
1.588379388E1,-3.999703375E0,-5.353308948E0,2.895320166E0,7.282748289E0
1.589378288E1,-3.892692019E0,-5.718226075E0,2.763047962E0,7.448865326E0
1.590377188E1,-3.759859652E0,-5.826897748E0,2.475578960E0,7.363271905E0
1.591376087E1,-3.463083052E0,-5.943149750E0,2.121397905E0,7.198215213E0
1.592374987E1,-2.841846210E0,-5.921820862E0,1.878619319E0,6.831783277E0
1.593373887E1,-2.353716700E0,-5.749031546E0,1.639790965E0,6.424971629E0
1.594372787E1,-2.020095333E0,-5.534597191E0,1.371221187E0,6.049198192E0
1.595371687E1,-1.825180153E0,-5.092727197E0,1.128928943E0,5.526448539E0
1.596370587E1,-1.681402237E0,-4.455932084E0,1.018656376E0,4.870329047E0
1.597369487E1,-1.596835418E0,-3.758093208E0,9.554783070E-1,4.193576840E0
1.598368387E1,-1.514563486E0,-2.889929034E0,8.698084116E-1,3.376708315E0
1.599367287E1,-1.413876479E0,-1.852477441E0,8.283504832E-1,2.473233489E0
1.600366188E1,-1.215877332E0,-5.785124069E-1,8.611966324E-1,1.598340993E0
1.601365088E1,-9.729946648E-1,6.312519532E-1,9.607957649E-1,1.506096328E0
1.602363988E1,-7.592561285E-1,1.860605655E0,1.159930295E0,2.320293422E0
1.603362888E1,-5.951415959E-1,3.175699419E0,1.331129753E0,3.494447988E0
1.604361787E1,-6.644596066E-1,4.393695490E0,1.349083629E0,4.643930799E0
1.605360687E1,-9.396213891E-1,5.164258525E0,1.234606841E0,5.392282311E0
1.606359587E1,-1.472977211E0,5.503654311E0,1.021378766E0,5.788185141E0
1.607358487E1,-2.080320484E0,5.985119895E0,5.938899994E-1,6.364125926E0
1.608357387E1,-2.720014209E0,6.266402543E0,5.286292255E-2,6.831476606E0
1.609356287E1,-3.268708155E0,6.265441845E0,-4.781771465E-1,7.082998511E0
1.610355187E1,-3.578558545E0,6.142409411E0,-1.064588521E0,7.188088991E0
1.611354087E1,-3.759032563E0,5.594042324E0,-1.559234313E0,6.917719782E0
1.612352987E1,-3.608186679E0,4.958169901E0,-1.975244996E0,6.442363904E0
1.613351887E1,-3.001207687E0,4.562434439E0,-2.445161160E0,5.983466277E0
1.614350788E1,-2.337711555E0,3.901646445E0,-2.977192880E0,5.436121572E0
1.615349688E1,-2.014074893E0,3.027697036E0,-3.174496062E0,4.827097706E0
1.616348588E1,-2.010248329E0,1.795054860E0,-3.075892711E0,4.089552086E0
1.617347488E1,-2.027099859E0,1.921471077E-1,-2.828796979E0,3.485419156E0
1.618346387E1,-1.834121277E0,-1.182877108E0,-2.481197550E0,3.304472786E0
1.619345287E1,-1.452675532E0,-1.934397517E0,-1.920619723E0,3.088841219E0
1.620344187E1,-9.627811870E-1,-1.867782528E0,-1.268627111E0,2.454582232E0
1.621343087E1,-3.751553097E-1,-1.004154623E0,-5.178119131E-1,1.190460915E0
1.622341987E1,1.898609926E-1,5.368188357E-1,4.201797108E-1,7.076529151E-1
1.623340887E1,7.403817549E-1,2.566797279E0,1.750768633E0,3.194026333E0
1.624339787E1,1.256434058E0,4.071367142E0,2.855656164E0,5.129271788E0
1.625338687E1,1.587477242E0,4.560787863E0,3.564003071E0,6.001915345E0
1.626337587E1,1.835544489E0,4.728737438E0,3.888284973E0,6.391317655E0
1.627336487E1,1.870102703E0,4.422441571E0,3.846921769E0,6.152566999E0
1.628335388E1,1.535057246E0,3.210306165E0,3.567078706E0,5.038503440E0
1.629334288E1,9.286604179E-1,1.696664931E0,3.234843421E0,3.768991114E0
1.630333188E1,3.051283973E-1,5.711653805E-1,2.917772305E0,2.988767046E0
1.631332187E1,-1.979386286E-1,-2.898260146E-1,2.587190613E0,2.610887605E0
1.632330987E1,-5.528625722E-1,-1.084567287E0,2.241909020E0,2.551097661E0
1.633329987E1,-8.814910754E-1,-1.690001444E0,1.997228773E0,2.760806797E0
1.634328887E1,-1.099666844E0,-2.118909915E0,1.773152944E0,2.973738011E0
1.635327787E1,-1.357212135E0,-2.419525797E0,1.561247510E0,3.183335303E0
1.636326687E1,-1.626992725E0,-2.454527814E0,1.515753833E0,3.311996649E0
1.637325587E1,-1.835941223E0,-2.240742500E0,1.598527018E0,3.308609338E0
1.638324487E1,-2.055488383E0,-2.078879292E0,1.673644005E0,3.368657872E0
1.639323388E1,-2.212750417E0,-2.010703096E0,1.684596863E0,3.431771837E0
1.640322288E1,-2.334760758E0,-2.044288918E0,1.660865207E0,3.519758261E0
1.641321188E1,-2.321148001E0,-2.014938819E0,1.656254239E0,3.491544729E0
1.642320088E1,-2.263643998E0,-2.076052163E0,1.559011681E0,3.444502018E0
1.643318987E1,-2.079357156E0,-2.133854814E0,1.519611826E0,3.344590057E0
1.644317887E1,-1.700126775E0,-2.141185468E0,1.633430218E0,3.184839169E0
1.645316787E1,-1.389611265E0,-2.158566316E0,1.827854816E0,3.151425271E0
1.646315687E1,-1.154035133E0,-2.218982672E0,2.031943692E0,3.222495361E0
1.647314587E1,-8.797497015E-1,-2.390766267E0,2.207125250E0,3.370626759E0
1.648313487E1,-6.114874507E-1,-2.674214138E0,2.311833679E0,3.587466114E0
1.649312387E1,-3.848516744E-1,-2.865110527E0,2.337114555E0,3.717401456E0
1.650311287E1,-1.918127566E-1,-2.997353495E0,2.407178085E0,3.849081246E0
